#time,accel_x,accel_y,accel_z
12159.862496,1036.288319,-4589.276840,-77222.426198
12159.865054,-1628.453072,4441.235652,-76456.330700
12159.867612,2664.741391,-4293.194464,-79367.493593
12159.870171,0.000000,-1924.535449,-78448.178995
12159.872729,-740.205942,1184.329507,-78294.959896
12159.875287,0.000000,-888.247130,-78907.836294
12159.877845,5625.565159,2220.617826,-76456.330700
12159.880404,-1776.494261,-1628.453072,-77375.645298
12159.882962,3256.906145,2368.659014,-77375.645298
12159.885520,2812.782580,-1480.411884,-78907.836294
12159.888079,-2960.823768,7550.100608,-76456.330700
12159.890637,4737.318029,888.247130,-77375.645298
12159.893195,7698.141797,4145.153275,-77682.083497
12159.895753,5181.441594,5181.441594,-79214.274493
12159.898312,15692.365970,2368.659014,-77682.083497
12159.900870,8586.388927,-296.082377,-79980.369991
12159.903428,-8290.306550,1628.453072,-77835.302597
12159.905987,-12139.377449,-2220.617826,-76456.330700
12159.908545,-2812.782580,-6069.688724,-77222.426198
12159.911103,-5033.400406,-2368.659014,-77222.426198
12159.913661,6217.729913,-3108.864956,-78448.178995
12159.916220,5625.565159,-3701.029710,-78601.398095
12159.918778,-6661.853478,-5033.400406,-76915.987999
12159.921336,-12731.542202,2960.823768,-75843.454302
12159.923895,-6365.771101,-5773.606348,-79061.055394
12159.926453,296.082377,-2516.700203,-78601.398095
12159.929011,1184.329507,1332.370696,-77835.302597
12159.931569,5181.441594,-4737.318029,-76762.768900
12159.934128,-10214.842000,-4589.276840,-76762.768900
12159.936686,-6661.853478,-3997.112087,-76609.549800
12159.939247,592.164754,-5181.441594,-77682.083497
12159.941808,1924.535449,-1184.329507,-77222.426198
12159.944369,-2220.617826,0.000000,-78141.740796
12159.946931,444.123565,-2664.741391,-78907.836294
12159.949492,-1480.411884,-5921.647536,-78448.178995
12159.952053,-4293.194464,1480.411884,-77988.521696
12159.954614,3404.947333,-6069.688724,-78601.398095
12159.957175,1924.535449,-2072.576638,-77682.083497
12159.959736,-6661.853478,-4441.235652,-77682.083497
12159.962298,740.205942,-9030.512492,-77069.207099
12159.964859,-5181.441594,-4737.318029,-78448.178995
12159.967420,-6217.729913,1924.535449,-77069.207099
12159.969981,1776.494261,-1036.288319,-78448.178995
12159.972542,1776.494261,-3108.864956,-78601.398095
12159.975103,-5329.482782,-148.041188,-76456.330700
12159.977665,-2664.741391,-1332.370696,-78448.178995
12159.980226,-2220.617826,-6809.894666,-78907.836294
12159.982787,-9770.718434,-2664.741391,-78294.959896
12159.985348,3701.029710,-7254.018232,-77375.645298
12159.987909,8882.471304,-4737.318029,-77528.864398
12159.990470,1036.288319,888.247130,-76609.549800
12159.993032,-444.123565,3849.070898,-77069.207099
12159.995593,5033.400406,2220.617826,-77835.302597
12159.998154,-4589.276840,4737.318029,-75690.235202
12160.000715,-3552.988522,1776.494261,-77682.083497
12160.003276,1332.370696,-5329.482782,-78294.959896
12160.005837,3997.112087,-2368.659014,-77528.864398
12160.008398,5181.441594,1776.494261,-77528.864398
12160.010960,5329.482782,-1480.411884,-77222.426198
12160.013521,-1480.411884,1924.535449,-76915.987999
12160.016082,-3108.864956,9474.636058,-76149.892501
12160.018643,4589.276840,1480.411884,-77682.083497
12160.021204,3256.906145,2368.659014,-76915.987999
12160.023765,2812.782580,1924.535449,-77375.645298
12160.026327,6217.729913,-3701.029710,-78141.740796
12160.028888,-3701.029710,-3108.864956,-77835.302597
12160.031449,-3552.988522,592.164754,-76915.987999
12160.034010,1924.535449,148.041188,-79061.055394
12160.036571,8882.471304,3701.029710,-77835.302597
12160.039132,-1924.535449,4885.359217,-77069.207099
12160.041673,4441.235652,888.247130,-79061.055394
12160.044208,1480.411884,-1332.370696,-78294.959896
12160.046743,-3849.070898,-1776.494261,-77375.645298
12160.049278,4885.359217,740.205942,-76609.549800
12160.051814,2960.823768,-1036.288319,-78448.178995
12160.054349,-1924.535449,1184.329507,-76609.549800
12160.056884,1480.411884,6365.771101,-78141.740796
12160.059420,4737.318029,3997.112087,-78141.740796
12160.061955,1332.370696,2516.700203,-77835.302597
12160.064490,9326.594869,592.164754,-77682.083497
12160.067025,6513.812290,-2516.700203,-77069.207099
12160.069561,592.164754,3701.029710,-76915.987999
12160.072096,444.123565,-148.041188,-77835.302597
12160.074631,2516.700203,-1184.329507,-78907.836294
12160.077166,-592.164754,1628.453072,-76915.987999
12160.079702,2664.741391,6217.729913,-76149.892501
12160.082237,7550.100608,1036.288319,-77835.302597
12160.084772,-1036.288319,-1480.411884,-78141.740796
12160.087308,-3404.947333,888.247130,-77375.645298
12160.089843,1036.288319,-2516.700203,-76149.892501
12160.092378,-7550.100608,-2220.617826,-76149.892501
12160.094913,-4885.359217,-3256.906145,-77682.083497
12160.097449,5477.523971,-7402.059420,-77682.083497
12160.099984,4589.276840,-3849.070898,-77375.645298
12160.102519,-7105.977043,1036.288319,-77528.864398
12160.105054,-2072.576638,-4441.235652,-77988.521696
12160.107590,-2072.576638,-3552.988522,-78754.617194
12160.110125,-9326.594869,1036.288319,-78294.959896
12160.112660,148.041188,-5329.482782,-78294.959896
12160.115196,0.000000,-6365.771101,-77528.864398
12160.117731,-5033.400406,-5033.400406,-77222.426198
12160.120266,1480.411884,-5625.565159,-77835.302597
12160.122801,-3108.864956,-2516.700203,-78448.178995
12160.125337,-3108.864956,-1036.288319,-78141.740796
12160.127872,1480.411884,444.123565,-78907.836294
12160.130407,148.041188,-1776.494261,-78754.617194
12160.132942,-4737.318029,-592.164754,-76915.987999
12160.135478,-592.164754,-1480.411884,-78294.959896
12160.138013,740.205942,-6957.935855,-78754.617194
12160.140548,-2516.700203,-148.041188,-78907.836294
12160.143092,1184.329507,3849.070898,-76762.768900
12160.145635,1184.329507,-1628.453072,-75537.016103
12160.148178,2664.741391,-3997.112087,-78294.959896
12160.150721,-6513.812290,-740.205942,-78141.740796
12160.153265,888.247130,-5329.482782,-78601.398095
12160.155808,-3256.906145,-7994.224174,-77528.864398
12160.158351,-8734.430116,-3701.029710,-78601.398095
12160.160895,-2516.700203,-5921.647536,-78448.178995
12160.163438,-4589.276840,-2072.576638,-77528.864398
12160.165981,-6217.729913,-2220.617826,-77222.426198
12160.168525,1628.453072,-296.082377,-77988.521696
12160.171068,888.247130,-1628.453072,-77528.864398
12160.173611,-7105.977043,0.000000,-76149.892501
12160.176154,-4145.153275,-8142.265362,-79367.493593
12160.178698,-148.041188,-6069.688724,-78907.836294
12160.181241,-1184.329507,-1924.535449,-77682.083497
12160.183784,9178.553681,888.247130,-79214.274493
12160.186328,4441.235652,-1036.288319,-79367.493593
12160.188871,-1480.411884,3997.112087,-75996.673402
12160.191414,-1628.453072,6513.812290,-77222.426198
12160.193957,-1924.535449,-444.123565,-76915.987999
12160.196501,-3256.906145,-1480.411884,-77835.302597
12160.199044,7254.018232,1924.535449,-77682.083497
12160.201587,8734.430116,-592.164754,-77682.083497
12160.204131,-2368.659014,-1332.370696,-77375.645298
12160.206674,-592.164754,3108.864956,-79061.055394
12160.209217,2220.617826,592.164754,-78448.178995
12160.211761,-1776.494261,3849.070898,-77835.302597
12160.214304,1184.329507,6069.688724,-78294.959896
12160.216847,9770.718434,-1332.370696,-77375.645298
12160.219390,2664.741391,-3404.947333,-77069.207099
12160.221934,-3404.947333,2812.782580,-75383.797003
12160.224477,6217.729913,-4441.235652,-77528.864398
12160.227020,-1332.370696,-148.041188,-78294.959896
12160.229564,1480.411884,3256.906145,-78601.398095
12160.232107,2960.823768,1036.288319,-77835.302597
12160.234650,3552.988522,-888.247130,-77682.083497
12160.237193,-2812.782580,-2368.659014,-77682.083497
12160.239737,2220.617826,2220.617826,-77835.302597
12160.242280,4145.153275,-1184.329507,-79061.055394
12160.244830,-740.205942,3256.906145,-78448.178995
12160.247380,5773.606348,888.247130,-78448.178995
12160.249931,5773.606348,3404.947333,-77988.521696
12160.252481,888.247130,5477.523971,-78601.398095
12160.255031,9326.594869,2516.700203,-77835.302597
12160.257581,7698.141797,-148.041188,-79214.274493
12160.260132,444.123565,1036.288319,-78448.178995
12160.262682,740.205942,1924.535449,-76149.892501
12160.265232,740.205942,-592.164754,-77069.207099
12160.267782,-888.247130,-296.082377,-78141.740796
12160.270332,6069.688724,4145.153275,-77682.083497
12160.272883,6661.853478,888.247130,-78448.178995
12160.275433,-4145.153275,3701.029710,-78141.740796
12160.277983,-2072.576638,1628.453072,-78601.398095
12160.280533,-1036.288319,-4737.318029,-76762.768900
12160.283083,-8438.347739,-4885.359217,-76762.768900
12160.285634,-1924.535449,-3256.906145,-77528.864398
12160.288184,7698.141797,-7550.100608,-78294.959896
12160.290734,-1924.535449,-3997.112087,-77682.083497
12160.293284,-2664.741391,-2220.617826,-75843.454302
12160.295835,-2368.659014,-4885.359217,-77222.426198
12160.298385,-8586.388927,-148.041188,-77069.207099
12160.300935,-3849.070898,148.041188,-78141.740796
12160.303485,1184.329507,-2664.741391,-77682.083497
12160.306035,888.247130,-7550.100608,-78294.959896
12160.308586,-6661.853478,-3701.029710,-77835.302597
12160.311136,-2072.576638,-5625.565159,-77835.302597
12160.313686,-3256.906145,-4589.276840,-77069.207099
12160.316236,-4441.235652,-148.041188,-77528.864398
12160.318787,5033.400406,-6365.771101,-79520.712692
12160.321337,-1776.494261,2812.782580,-75843.454302
12160.323887,-6957.935855,-2812.782580,-77682.083497
12160.326437,-2368.659014,-2516.700203,-78294.959896
12160.328987,0.000000,-296.082377,-79520.712692
12160.331538,-1924.535449,-1184.329507,-78141.740796
12160.334088,740.205942,-2072.576638,-79367.493593
12160.336638,3404.947333,-2368.659014,-79214.274493
12160.339188,-7994.224174,-1776.494261,-77835.302597
12160.341738,2368.659014,-3552.988522,-77528.864398
12160.344289,-1036.288319,-4737.318029,-77988.521696
12160.346844,-10658.965565,-5773.606348,-77528.864398
12160.349400,-4737.318029,-1628.453072,-78448.178995
12160.351955,-3256.906145,-5921.647536,-77528.864398
12160.354510,-6217.729913,-2664.741391,-76456.330700
12160.357066,-148.041188,-1184.329507,-78754.617194
12160.359621,296.082377,-4145.153275,-78294.959896
12160.362177,-7698.141797,-2960.823768,-76762.768900
12160.364732,-4885.359217,-3108.864956,-76303.111601
12160.367287,4145.153275,-5477.523971,-77222.426198
12160.369843,4145.153275,-2960.823768,-77069.207099
12160.372398,-1480.411884,2960.823768,-77835.302597
12160.374954,6217.729913,-3701.029710,-79061.055394
12160.377509,-148.041188,2516.700203,-77835.302597
12160.380065,-6069.688724,6069.688724,-77069.207099
12160.382620,-592.164754,-1036.288319,-76149.892501
12160.385175,-592.164754,-1776.494261,-77375.645298
12160.387731,6809.894666,3701.029710,-77528.864398
12160.390286,5477.523971,-2960.823768,-77528.864398
12160.392842,4589.276840,-2368.659014,-78141.740796
12160.395397,-3997.112087,4589.276840,-77222.426198
12160.397953,2960.823768,2960.823768,-78294.959896
12160.400508,5625.565159,1924.535449,-78907.836294
12160.403063,-296.082377,6069.688724,-79061.055394
12160.405619,8882.471304,-3256.906145,-79061.055394
12160.408174,3256.906145,-1184.329507,-76762.768900
12160.410730,-3108.864956,1480.411884,-74924.139704
12160.413285,3256.906145,-2812.782580,-76915.987999
12160.415841,1480.411884,-444.123565,-79673.931792
12160.418396,1332.370696,3997.112087,-78754.617194
12160.420951,-2368.659014,740.205942,-77375.645298
12160.423507,4145.153275,-740.205942,-76609.549800
12160.426062,-2664.741391,-740.205942,-80286.808190
12160.428618,296.082377,4737.318029,-79061.055394
12160.431173,4293.194464,-740.205942,-79827.150892
12160.433728,-444.123565,5921.647536,-76609.549800
12160.436284,5329.482782,6217.729913,-76456.330700
12160.438839,6957.935855,-444.123565,-75230.577904
12160.441395,2960.823768,1332.370696,-76303.111601
12160.443950,4293.194464,5625.565159,-77222.426198
12160.446506,3552.988522,-1036.288319,-79061.055394
12160.449065,-3997.112087,148.041188,-77375.645298
12160.451625,-1332.370696,148.041188,-76762.768900
12160.454185,6957.935855,-296.082377,-78907.836294
12160.456745,-148.041188,2220.617826,-77835.302597
12160.459305,-2516.700203,3404.947333,-77222.426198
12160.461865,296.082377,-444.123565,-78141.740796
12160.464425,-2220.617826,-1184.329507,-76762.768900
12160.466985,-9622.677246,-740.205942,-76762.768900
12160.469544,2072.576638,-6957.935855,-77222.426198
12160.472104,888.247130,-5773.606348,-77682.083497
12160.474664,888.247130,-888.247130,-77835.302597
12160.477224,444.123565,-9622.677246,-78754.617194
12160.479784,-6809.894666,-3997.112087,-77069.207099
12160.482344,-10955.047942,1480.411884,-78448.178995
12160.484904,592.164754,-592.164754,-78601.398095
12160.487464,1184.329507,-2220.617826,-78907.836294
12160.490023,-2960.823768,-1332.370696,-76456.330700
12160.492583,1628.453072,-6069.688724,-78141.740796
12160.495143,-2220.617826,-8734.430116,-77988.521696
12160.497703,-6957.935855,-1480.411884,-77988.521696
12160.500263,1184.329507,-4145.153275,-78907.836294
12160.502823,-1776.494261,-1924.535449,-79214.274493
12160.505383,-1776.494261,148.041188,-75996.673402
12160.507943,-1036.288319,-1628.453072,-77835.302597
12160.510502,888.247130,-3701.029710,-78448.178995
12160.513062,-444.123565,-148.041188,-75996.673402
12160.515622,-1924.535449,-740.205942,-76456.330700
12160.518182,2664.741391,-1184.329507,-76609.549800
12160.520742,-6513.812290,-3552.988522,-78754.617194
12160.523302,-296.082377,-2664.741391,-77528.864398
12160.525862,-2368.659014,-6069.688724,-78141.740796
12160.528422,-7698.141797,-3552.988522,-76456.330700
12160.530981,-7105.977043,-2220.617826,-77528.864398
12160.533541,-2368.659014,-7105.977043,-76915.987999
12160.536101,-7105.977043,-5033.400406,-75077.358804
12160.538661,-296.082377,1184.329507,-75996.673402
12160.541221,-444.123565,-4441.235652,-77222.426198
12160.543781,-6661.853478,-4589.276840,-77222.426198
12160.546341,-6513.812290,148.041188,-76149.892501
12160.548901,3997.112087,-3849.070898,-78601.398095
12160.551464,5329.482782,-2812.782580,-79214.274493
12160.554027,-2516.700203,-1036.288319,-77375.645298
12160.556589,8586.388927,-1480.411884,-77528.864398
12160.559152,1776.494261,1480.411884,-79061.055394
12160.561715,-8586.388927,5477.523971,-76456.330700
12160.564278,-592.164754,-148.041188,-77835.302597
12160.566841,10214.842000,1184.329507,-79061.055394
12160.569404,1776.494261,1776.494261,-77528.864398
12160.571967,2072.576638,2960.823768,-76762.768900
12160.574530,1924.535449,-5033.400406,-77528.864398
12160.577093,-3108.864956,2812.782580,-76762.768900
12160.579656,-1924.535449,4293.194464,-77682.083497
12160.582219,9030.512492,296.082377,-78141.740796
12160.584782,888.247130,2072.576638,-77222.426198
12160.587345,4145.153275,3256.906145,-77069.207099
12160.589908,148.041188,-1776.494261,-77222.426198
12160.592471,-1480.411884,-2072.576638,-75537.016103
12160.595034,-6069.688724,-444.123565,-77988.521696
12160.597597,10807.006753,1184.329507,-77835.302597
12160.600160,592.164754,-4145.153275,-78141.740796
12160.602723,-5033.400406,4589.276840,-76303.111601
12160.605286,4145.153275,-4737.318029,-78601.398095
12160.607848,3108.864956,2960.823768,-76762.768900
12160.610411,-3108.864956,2220.617826,-79214.274493
12160.612974,9918.759623,3997.112087,-76456.330700
12160.615537,3404.947333,-2368.659014,-78601.398095
12160.618100,3552.988522,3552.988522,-76762.768900
12160.620663,4885.359217,2812.782580,-77682.083497
12160.623226,6957.935855,2664.741391,-78141.740796
12160.625789,-5181.441594,2516.700203,-79367.493593
12160.628352,4145.153275,740.205942,-78601.398095
12160.630915,3997.112087,-2516.700203,-78448.178995
12160.633478,1184.329507,2516.700203,-78754.617194
12160.636041,4441.235652,-740.205942,-78294.959896
12160.638604,3997.112087,-888.247130,-78141.740796
12160.641167,-3404.947333,4441.235652,-74924.139704
12160.643730,-8586.388927,2368.659014,-76762.768900
12160.646293,-2368.659014,-7994.224174,-78601.398095
12160.648856,-888.247130,-7402.059420,-77682.083497
12160.651419,3997.112087,-1332.370696,-77222.426198
12160.653984,1628.453072,-6661.853478,-78754.617194
12160.656550,-6365.771101,-4737.318029,-78601.398095
12160.659115,-6513.812290,-2812.782580,-77988.521696
12160.661681,-1924.535449,148.041188,-77375.645298
12160.664247,-3997.112087,-2072.576638,-77988.521696
12160.666812,-1184.329507,296.082377,-76915.987999
12160.669378,3256.906145,-7994.224174,-77222.426198
12160.671944,-4293.194464,-6069.688724,-75843.454302
12160.674509,-7105.977043,-1480.411884,-76149.892501
12160.677075,-740.205942,-10362.883188,-78907.836294
12160.679640,-2812.782580,-3404.947333,-78754.617194
12160.682206,-1628.453072,4441.235652,-76456.330700
12160.684772,2960.823768,-592.164754,-77375.645298
12160.687337,-444.123565,-3552.988522,-78754.617194
12160.689903,-3404.947333,-888.247130,-78141.740796
12160.692469,-1924.535449,-2664.741391,-76762.768900
12160.695034,6809.894666,-1924.535449,-78141.740796
12160.697600,-7994.224174,-2664.741391,-78141.740796
12160.700165,2812.782580,-3997.112087,-77682.083497
12160.702731,-4589.276840,-6513.812290,-78448.178995
12160.705297,-10510.924376,-1184.329507,-76303.111601
12160.707862,-6365.771101,-2516.700203,-78294.959896
12160.710428,444.123565,-5773.606348,-78448.178995
12160.712993,-5921.647536,-2664.741391,-77222.426198
12160.715559,-444.123565,-1776.494261,-77069.207099
12160.718125,-1628.453072,-1776.494261,-78294.959896
12160.720690,-9622.677246,-1184.329507,-77069.207099
12160.723256,1332.370696,-2960.823768,-78294.959896
12160.725822,8734.430116,-1480.411884,-78754.617194
12160.728387,-5033.400406,-444.123565,-79520.712692
12160.730953,4441.235652,3108.864956,-75690.235202
12160.733518,3849.070898,-2960.823768,-77988.521696
12160.736058,-4145.153275,4885.359217,-75537.016103
12160.738597,-7846.182985,3256.906145,-78448.178995
12160.741136,6661.853478,-444.123565,-77222.426198
12160.743675,2368.659014,2220.617826,-77069.207099
12160.746214,6809.894666,4885.359217,-76915.987999
12160.748753,3404.947333,-3552.988522,-78907.836294
12160.751292,-2812.782580,-888.247130,-77069.207099
12160.753831,-3701.029710,5625.565159,-77222.426198
12160.756370,3701.029710,1184.329507,-78448.178995
12160.758909,6069.688724,1036.288319,-78448.178995
12160.761449,2516.700203,2812.782580,-78448.178995
12160.763988,5773.606348,740.205942,-77835.302597
12160.766527,-592.164754,-2368.659014,-76456.330700
12160.769066,-2664.741391,2812.782580,-75690.235202
12160.771605,5921.647536,-2220.617826,-78294.959896
12160.774144,2220.617826,-2664.741391,-80593.246390
12160.776683,-888.247130,1332.370696,-78141.740796
12160.779222,-3701.029710,1332.370696,-79827.150892
12160.781761,3256.906145,1628.453072,-79367.493593
12160.784300,-4145.153275,2664.741391,-78141.740796
12160.786839,8882.471304,3404.947333,-76609.549800
12160.789379,6809.894666,1184.329507,-80899.684589
12160.791918,5033.400406,6957.935855,-78141.740796
12160.794457,8290.306550,444.123565,-77528.864398
12160.796996,5625.565159,1776.494261,-77682.083497
12160.799535,-5773.606348,1184.329507,-77375.645298
12160.802074,1480.411884,0.000000,-78294.959896
12160.804613,5477.523971,-1184.329507,-77375.645298
12160.807152,1924.535449,444.123565,-77988.521696
12160.809691,592.164754,2960.823768,-79061.055394
12160.812230,1036.288319,-740.205942,-78601.398095
12160.814770,-3256.906145,3404.947333,-76303.111601
12160.817309,-7994.224174,-740.205942,-77682.083497
12160.819848,3404.947333,-8438.347739,-77528.864398
12160.822387,2516.700203,-7105.977043,-77682.083497
12160.824926,1924.535449,0.000000,-76762.768900
12160.827465,-888.247130,-9622.677246,-77835.302597
12160.830004,-7105.977043,-6365.771101,-77682.083497
12160.832543,-9030.512492,2368.659014,-77375.645298
12160.835082,-1332.370696,-2072.576638,-77222.426198
12160.837628,-4293.194464,-2664.741391,-77835.302597
12160.840175,-1036.288319,-2072.576638,-78141.740796
12160.842721,3108.864956,-6513.812290,-77682.083497
12160.845267,-3108.864956,-6957.935855,-77069.207099
12160.847813,-9770.718434,-2664.741391,-77069.207099
12160.850359,3701.029710,-5921.647536,-79673.931792
12160.852905,-592.164754,-2960.823768,-79673.931792
12160.855451,-1332.370696,4885.359217,-77069.207099
12160.857998,740.205942,-6365.771101,-77682.083497
12160.860544,-1036.288319,-3108.864956,-76303.111601
12160.863090,-3552.988522,740.205942,-76456.330700
12160.865636,-2812.782580,-1184.329507,-76762.768900
12160.868182,5329.482782,-4737.318029,-77375.645298
12160.870728,-9326.594869,-6069.688724,-77988.521696
12160.873274,-1480.411884,-3849.070898,-76609.549800
12160.875821,-7105.977043,-4885.359217,-76609.549800
12160.878367,-9178.553681,-1628.453072,-77835.302597
12160.880913,-2516.700203,-4145.153275,-79827.150892
12160.883459,1924.535449,-4145.153275,-79214.274493
12160.886005,-6069.688724,-4885.359217,-76915.987999
12160.888551,-5773.606348,-1036.288319,-76609.549800
12160.891098,-1628.453072,-6957.935855,-76609.549800
12160.893644,-148.041188,-1924.535449,-75996.673402
12160.896190,888.247130,1036.288319,-76149.892501
12160.898736,6069.688724,-3701.029710,-78448.178995
12160.901282,-740.205942,-148.041188,-78294.959896
12160.903828,1332.370696,6069.688724,-76762.768900
12160.906374,-1628.453072,1480.411884,-77988.521696
12160.908921,-1924.535449,-888.247130,-79061.055394
12160.911467,1628.453072,4737.318029,-77222.426198
12160.914013,11399.171507,296.082377,-76762.768900
12160.916559,5033.400406,740.205942,-77835.302597
12160.919105,-148.041188,444.123565,-77988.521696
12160.921651,2960.823768,-1776.494261,-78448.178995
12160.924197,-1776.494261,1480.411884,-77375.645298
12160.926744,-1184.329507,8438.347739,-77835.302597
12160.929290,7402.059420,-740.205942,-79367.493593
12160.931836,9622.677246,-2664.741391,-79367.493593
12160.934382,-3552.988522,5477.523971,-77988.521696
12160.936928,3404.947333,-1628.453072,-77528.864398
12160.939480,1628.453072,-1184.329507,-79214.274493
12160.942032,-444.123565,-148.041188,-78448.178995
12160.944584,3108.864956,-296.082377,-78141.740796
12160.947137,3997.112087,1184.329507,-78141.740796
12160.949689,-6661.853478,0.000000,-79367.493593
12160.952241,6957.935855,3108.864956,-78754.617194
12160.954793,2960.823768,592.164754,-78294.959896
12160.957345,5329.482782,5477.523971,-75537.016103
12160.959897,6957.935855,1480.411884,-77375.645298
12160.962449,12583.501014,2812.782580,-77988.521696
12160.965001,-2664.741391,1332.370696,-77222.426198
12160.967553,2368.659014,2812.782580,-76915.987999
12160.970106,1036.288319,-3108.864956,-79367.493593
12160.972658,2368.659014,2516.700203,-78754.617194
12160.975210,740.205942,2960.823768,-76456.330700
12160.977762,2516.700203,2664.741391,-77988.521696
12160.980314,3108.864956,740.205942,-78907.836294
12160.982866,-11547.212695,1776.494261,-77988.521696
12160.985418,-2072.576638,-4293.194464,-78141.740796
12160.987970,4885.359217,-9326.594869,-78448.178995
12160.990522,444.123565,-2812.782580,-78448.178995
12160.993075,4293.194464,-3997.112087,-76762.768900
12160.995627,-3256.906145,-7105.977043,-78448.178995
12160.998179,-9326.594869,-592.164754,-79673.931792
12161.000731,-5921.647536,3552.988522,-77375.645298
12161.003283,444.123565,-2368.659014,-77528.864398
12161.005835,-2368.659014,-3256.906145,-77682.083497
12161.008387,2664.741391,-6069.688724,-77988.521696
12161.010939,-1924.535449,-7550.100608,-77375.645298
12161.013491,-10362.883188,-5477.523971,-76609.549800
12161.016044,-5329.482782,-1628.453072,-77375.645298
12161.018596,740.205942,-1924.535449,-80286.808190
12161.021148,888.247130,-2664.741391,-77682.083497
12161.023700,-2072.576638,4441.235652,-75077.358804
12161.026252,740.205942,-5773.606348,-77222.426198
12161.028804,-2960.823768,-6217.729913,-79673.931792
12161.031356,-1184.329507,0.000000,-78448.178995
12161.033908,1480.411884,-8586.388927,-76762.768900
12161.036460,-1924.535449,-6365.771101,-75996.673402
12161.039013,-7846.182985,-4441.235652,-76456.330700
12161.041576,-5625.565159,-4589.276840,-76149.892501
12161.044133,-6217.729913,-3256.906145,-78141.740796
12161.046690,-5921.647536,-148.041188,-79520.712692
12161.049247,2664.741391,-4145.153275,-78907.836294
12161.051805,-444.123565,-2664.741391,-77528.864398
12161.054362,-9030.512492,-2220.617826,-77069.207099
12161.056919,740.205942,-6217.729913,-77682.083497
12161.059476,2516.700203,-3997.112087,-77375.645298
12161.062034,-444.123565,1924.535449,-76609.549800
12161.064591,7550.100608,-5033.400406,-77682.083497
12161.067148,7402.059420,2220.617826,-78141.740796
12161.069705,-6809.894666,6957.935855,-78754.617194
12161.072263,-4589.276840,3404.947333,-78448.178995
12161.074820,1480.411884,-592.164754,-79673.931792
12161.077377,2368.659014,4145.153275,-79061.055394
12161.079934,13175.665768,1628.453072,-78601.398095
12161.082491,7698.141797,-1480.411884,-77528.864398
12161.085049,-3256.906145,444.123565,-77069.207099
12161.087606,2960.823768,444.123565,-77835.302597
12161.090163,2664.741391,4441.235652,-78141.740796
12161.092720,888.247130,3404.947333,-77528.864398
12161.095278,7846.182985,4885.359217,-77682.083497
12161.097835,6809.894666,-3552.988522,-78601.398095
12161.100392,-740.205942,1332.370696,-75690.235202
12161.102949,-888.247130,1628.453072,-77682.083497
12161.105507,3997.112087,-2812.782580,-78601.398095
12161.108064,-1924.535449,-1036.288319,-78141.740796
12161.110621,1036.288319,3404.947333,-76149.892501
12161.113178,5033.400406,-2368.659014,-76149.892501
12161.115735,-444.123565,888.247130,-77528.864398
12161.118293,888.247130,6217.729913,-78294.959896
12161.120850,8290.306550,1480.411884,-77835.302597
12161.123407,7254.018232,1480.411884,-76303.111601
12161.125964,4293.194464,3256.906145,-77835.302597
12161.128522,4441.235652,-1184.329507,-76609.549800
12161.131079,-4145.153275,-1628.453072,-76915.987999
12161.133636,444.123565,1924.535449,-78754.617194
12161.136193,6513.812290,1924.535449,-78907.836294
12161.138751,6217.729913,-1924.535449,-78601.398095
12161.141308,-6069.688724,3256.906145,-76762.768900
12161.143869,4737.318029,1776.494261,-77375.645298
12161.146431,-5477.523971,-1924.535449,-79520.712692
12161.148993,-10510.924376,-1036.288319,-77682.083497
12161.151554,4737.318029,-10955.047942,-78601.398095
12161.154116,5477.523971,-4145.153275,-76456.330700
12161.156678,-4737.318029,-5033.400406,-77069.207099
12161.159239,-3701.029710,-4737.318029,-76456.330700
12161.161801,-6365.771101,-3256.906145,-77682.083497
12161.164363,-8734.430116,3849.070898,-78141.740796
12161.166924,-2368.659014,0.000000,-78141.740796
12161.169486,4589.276840,-3256.906145,-78754.617194
12161.172048,-3108.864956,-4441.235652,-77682.083497
12161.174609,592.164754,-6513.812290,-77375.645298
12161.177171,-2516.700203,-6513.812290,-76762.768900
12161.179733,-4737.318029,-4293.194464,-76609.549800
12161.182294,740.205942,2368.659014,-77988.521696
12161.184856,3701.029710,-2368.659014,-76915.987999
12161.187418,-3256.906145,-888.247130,-77069.207099
12161.189979,-4737.318029,-1628.453072,-77222.426198
12161.192541,444.123565,-2516.700203,-77835.302597
12161.195103,-2812.782580,-6661.853478,-77988.521696
12161.197664,-740.205942,-1036.288319,-77222.426198
12161.200226,-1776.494261,-7254.018232,-77988.521696
12161.202788,-7254.018232,-8882.471304,-75843.454302
12161.205349,-10362.883188,-296.082377,-76762.768900
12161.207911,-2072.576638,-4293.194464,-77528.864398
12161.210473,-1332.370696,-2368.659014,-77528.864398
12161.213034,-3108.864956,1184.329507,-77835.302597
12161.215596,-1924.535449,-9326.594869,-76762.768900
12161.218158,-6069.688724,-5033.400406,-76303.111601
12161.220719,-592.164754,-592.164754,-77222.426198
12161.223281,5181.441594,-4885.359217,-78294.959896
12161.225843,7846.182985,-3108.864956,-78907.836294
12161.228404,-148.041188,6661.853478,-77528.864398
12161.230966,4737.318029,2812.782580,-77988.521696
12161.233527,-1924.535449,2368.659014,-77375.645298
12161.236089,-5181.441594,4293.194464,-77988.521696
12161.238651,7105.977043,148.041188,-79367.493593
12161.241212,9326.594869,592.164754,-78754.617194
12161.243774,1628.453072,2812.782580,-77528.864398
12161.246339,2072.576638,0.000000,-75996.673402
12161.248903,592.164754,-740.205942,-77682.083497
12161.251468,-2368.659014,4441.235652,-77069.207099
12161.254032,2368.659014,4293.194464,-79214.274493
12161.256597,6069.688724,2812.782580,-78601.398095
12161.259162,2664.741391,2516.700203,-77988.521696
12161.261726,-444.123565,-2072.576638,-76456.330700
12161.264291,2960.823768,-148.041188,-76915.987999
12161.266855,-5625.565159,-1036.288319,-80286.808190
12161.269420,-3256.906145,6069.688724,-78448.178995
12161.271984,4293.194464,-4737.318029,-78141.740796
12161.274549,-592.164754,2072.576638,-74617.701505
12161.277114,148.041188,3108.864956,-78141.740796
12161.279678,7994.224174,3256.906145,-77222.426198
12161.282243,3256.906145,3256.906145,-76149.892501
12161.284807,8290.306550,6661.853478,-76149.892501
12161.287372,5477.523971,-1184.329507,-78448.178995
12161.289936,-1776.494261,-296.082377,-77222.426198
12161.292501,-1776.494261,1036.288319,-76609.549800
12161.295066,8142.265362,1776.494261,-77682.083497
12161.297630,3552.988522,-444.123565,-78294.959896
12161.300195,-444.123565,3108.864956,-77988.521696
12161.302759,5181.441594,-296.082377,-76915.987999
12161.305324,-7698.141797,1036.288319,-75690.235202
12161.307888,-9622.677246,-3552.988522,-77528.864398
12161.310453,2812.782580,-10362.883188,-78448.178995
12161.313018,2516.700203,-5329.482782,-78141.740796
12161.315582,-4441.235652,-3552.988522,-77988.521696
12161.318147,296.082377,-5921.647536,-79214.274493
12161.320711,-5329.482782,-5329.482782,-77682.083497
12161.323276,-9622.677246,3108.864956,-77528.864398
12161.325840,-2368.659014,148.041188,-77682.083497
12161.328405,4145.153275,-4737.318029,-78601.398095
12161.330970,-2664.741391,-1036.288319,-78294.959896
12161.333534,740.205942,-8882.471304,-77528.864398
12161.336099,-3701.029710,-6809.894666,-77528.864398
12161.338663,-5773.606348,-3256.906145,-77988.521696
12161.341228,148.041188,740.205942,-78141.740796
12161.343792,4293.194464,-3108.864956,-78754.617194
12161.346357,-2516.700203,1776.494261,-77069.207099
12161.348924,148.041188,-5921.647536,-77528.864398
12161.351492,-888.247130,148.041188,-77375.645298
12161.354059,-1036.288319,-3849.070898,-78448.178995
12161.356626,-3404.947333,-3849.070898,-79367.493593
12161.359194,-592.164754,-7254.018232,-78141.740796
12161.361761,-13619.789333,-8734.430116,-77069.207099
12161.364328,-7254.018232,-444.123565,-76456.330700
12161.366896,-3108.864956,-6069.688724,-77375.645298
12161.369463,-2664.741391,-1184.329507,-77222.426198
12161.372030,-5033.400406,-1776.494261,-78907.836294
12161.374598,1628.453072,-4589.276840,-74924.139704
12161.377165,-5477.523971,-4737.318029,-76762.768900
12161.379733,3849.070898,444.123565,-77222.426198
12161.382300,3404.947333,-5921.647536,-79980.369991
12161.384867,7402.059420,1480.411884,-78294.959896
12161.387435,-1924.535449,4293.194464,-78294.959896
12161.390002,3108.864956,3701.029710,-78141.740796
12161.392569,592.164754,740.205942,-77528.864398
12161.395137,1480.411884,4885.359217,-76303.111601
12161.397704,9918.759623,3997.112087,-77835.302597
12161.400271,8142.265362,444.123565,-79520.712692
12161.402839,-2516.700203,-1332.370696,-78907.836294
12161.405406,2664.741391,444.123565,-77682.083497
12161.407973,1184.329507,148.041188,-76915.987999
12161.410541,-740.205942,2960.823768,-77528.864398
12161.413108,5773.606348,4145.153275,-77988.521696
12161.415675,7846.182985,-592.164754,-77682.083497
12161.418243,-4145.153275,-2960.823768,-75230.577904
12161.420810,-148.041188,2664.741391,-74617.701505
12161.423377,1036.288319,-4293.194464,-78907.836294
12161.425945,-1628.453072,2072.576638,-77835.302597
12161.428512,-296.082377,888.247130,-78294.959896
12161.431079,2220.617826,1924.535449,-77528.864398
12161.433647,4441.235652,1036.288319,-77988.521696
12161.436214,3108.864956,6513.812290,-77988.521696
12161.438781,14804.118840,888.247130,-79520.712692
12161.441349,7846.182985,2072.576638,-78294.959896
12161.443916,888.247130,5329.482782,-77222.426198
12161.446483,592.164754,-4589.276840,-76456.330700
12161.449051,888.247130,296.082377,-76149.892501
12161.451591,-740.205942,2072.576638,-78754.617194
12161.454132,5773.606348,4145.153275,-79061.055394
12161.456672,1184.329507,-2516.700203,-80440.027290
12161.459212,-1776.494261,7550.100608,-77835.302597
12161.461753,-8290.306550,-5773.606348,-78754.617194
12161.464293,0.000000,-2812.782580,-76149.892501
12161.466834,-2664.741391,-7550.100608,-78907.836294
12161.469374,8586.388927,-3256.906145,-78601.398095
12161.471914,-2812.782580,-7402.059420,-79520.712692
12161.474455,-9030.512492,-3256.906145,-77375.645298
12161.476995,-8438.347739,-2220.617826,-77835.302597
12161.479536,-1628.453072,888.247130,-76149.892501
12161.482076,-5773.606348,-888.247130,-78448.178995
12161.484617,4293.194464,-1628.453072,-79061.055394
12161.487157,2516.700203,-6069.688724,-78448.178995
12161.489697,-5329.482782,-4293.194464,-77069.207099
12161.492238,-5921.647536,-4589.276840,-77528.864398
12161.494778,0.000000,-1036.288319,-79673.931792
12161.497319,-2072.576638,-2664.741391,-78907.836294
12161.499859,-1036.288319,3701.029710,-79214.274493
12161.502399,2960.823768,-7846.182985,-76762.768900
12161.504940,-2664.741391,-4145.153275,-74617.701505
12161.507480,-2072.576638,-2664.741391,-77835.302597
12161.510021,444.123565,-6365.771101,-77835.302597
12161.512561,-7698.141797,-8734.430116,-76149.892501
12161.515101,-8142.265362,-3997.112087,-76456.330700
12161.517642,-6513.812290,-6661.853478,-76456.330700
12161.520182,-3849.070898,-1776.494261,-76915.987999
12161.522723,-5921.647536,1036.288319,-79673.931792
12161.525263,1628.453072,-4293.194464,-79520.712692
12161.527803,-2812.782580,-4589.276840,-77988.521696
12161.530344,-296.082377,-888.247130,-76762.768900
12161.532884,4293.194464,-4737.318029,-76762.768900
12161.535425,-1628.453072,-5921.647536,-77835.302597
12161.537965,3849.070898,5181.441594,-76609.549800
12161.540505,6217.729913,1332.370696,-79367.493593
12161.543046,-296.082377,3997.112087,-77988.521696
12161.545586,-5773.606348,2812.782580,-78294.959896
12161.548127,4885.359217,2072.576638,-77988.521696
12161.550667,10955.047942,592.164754,-78754.617194
12161.553215,2516.700203,3552.988522,-78141.740796
12161.555762,5773.606348,-4885.359217,-79061.055394
12161.558310,3404.947333,-888.247130,-77375.645298
12161.560857,-5773.606348,5033.400406,-76915.987999
12161.563405,2664.741391,5181.441594,-77222.426198
12161.565952,5329.482782,3552.988522,-79061.055394
12161.568500,296.082377,2664.741391,-77222.426198
12161.571047,592.164754,-1036.288319,-76456.330700
12161.573595,2368.659014,-2812.782580,-77682.083497
12161.576142,-1776.494261,296.082377,-78601.398095
12161.578690,-740.205942,1332.370696,-78141.740796
12161.581237,6069.688724,592.164754,-77069.207099
12161.583785,-1332.370696,4441.235652,-75690.235202
12161.586332,592.164754,7550.100608,-76762.768900
12161.588880,10214.842000,-740.205942,-79367.493593
12161.591427,5773.606348,4441.235652,-77375.645298
12161.593975,3256.906145,3552.988522,-77835.302597
12161.596522,5033.400406,-2664.741391,-77528.864398
12161.599070,-1924.535449,-1924.535449,-77528.864398
12161.601617,2516.700203,2220.617826,-76609.549800
12161.604165,4293.194464,-1628.453072,-77069.207099
12161.606712,-2812.782580,3404.947333,-75690.235202
12161.609260,-2812.782580,5773.606348,-77528.864398
12161.611807,-3256.906145,-1184.329507,-77528.864398
12161.614355,-5773.606348,-6217.729913,-77682.083497
12161.616902,-3404.947333,-5921.647536,-79061.055394
12161.619450,7105.977043,-7550.100608,-78448.178995
12161.621997,1332.370696,-6365.771101,-77835.302597
12161.624545,-6809.894666,-2368.659014,-77069.207099
12161.627092,-2812.782580,-6069.688724,-78448.178995
12161.629640,-8438.347739,-2072.576638,-76609.549800
12161.632187,-7550.100608,296.082377,-77682.083497
12161.634735,2960.823768,-2368.659014,-79061.055394
12161.637282,2664.741391,-5625.565159,-78294.959896
12161.639830,-8882.471304,-3256.906145,-77835.302597
12161.642377,-1924.535449,-8882.471304,-78141.740796
12161.644925,444.123565,-4589.276840,-78141.740796
12161.647472,-740.205942,1184.329507,-78754.617194
12161.650020,3997.112087,-2072.576638,-78907.836294
12161.652567,444.123565,0.000000,-75843.454302
12161.655121,-3997.112087,-2220.617826,-76303.111601
12161.657674,-3404.947333,-3256.906145,-77682.083497
12161.660228,740.205942,-6661.853478,-77682.083497
12161.662781,-10214.842000,-9770.718434,-76762.768900
12161.665335,-6365.771101,-4589.276840,-76915.987999
12161.667888,-5625.565159,-5625.565159,-76762.768900
12161.670442,-7105.977043,-1628.453072,-76762.768900
12161.672995,-1628.453072,-2072.576638,-77682.083497
12161.675549,2220.617826,-4441.235652,-78141.740796
12161.678102,-148.041188,-2960.823768,-77222.426198
12161.680656,2368.659014,-888.247130,-76456.330700
12161.683209,1332.370696,-5773.606348,-77682.083497
12161.685762,-2664.741391,-3849.070898,-76762.768900
12161.688316,3552.988522,3552.988522,-77069.207099
12161.690869,3256.906145,3256.906145,-77069.207099
12161.693423,-5033.400406,3404.947333,-76149.892501
12161.695976,148.041188,3701.029710,-77222.426198
12161.698530,6365.771101,3701.029710,-77988.521696
12161.701083,9178.553681,592.164754,-77375.645298
12161.703637,-2368.659014,3256.906145,-78601.398095
12161.706190,7846.182985,-3997.112087,-79061.055394
12161.708744,1036.288319,-148.041188,-78294.959896
12161.711297,-3997.112087,4885.359217,-78448.178995
12161.713851,7550.100608,-148.041188,-78754.617194
12161.716404,6217.729913,3849.070898,-79214.274493
12161.718958,0.000000,3552.988522,-77528.864398
12161.721511,-740.205942,-592.164754,-76915.987999
12161.724064,2072.576638,592.164754,-76915.987999
12161.726618,-1628.453072,-1184.329507,-78907.836294
12161.729171,1924.535449,1480.411884,-79980.369991
12161.731725,3552.988522,3701.029710,-78601.398095
12161.734278,-1776.494261,5477.523971,-77682.083497
12161.736832,8734.430116,5329.482782,-78907.836294
12161.739385,11103.089130,1628.453072,-78907.836294
12161.741939,3256.906145,5625.565159,-77528.864398
12161.744492,3849.070898,3404.947333,-76456.330700
12161.747046,3701.029710,-592.164754,-76456.330700
12161.749599,-1036.288319,-444.123565,-77682.083497
12161.752153,592.164754,3552.988522,-76762.768900
12161.754706,1480.411884,-3256.906145,-78907.836294
12161.757265,1924.535449,3701.029710,-78141.740796
12161.759823,-6365.771101,740.205942,-78448.178995
12161.762382,-4145.153275,-5329.482782,-75996.673402
12161.764941,-4589.276840,-8734.430116,-77069.207099
12161.767499,-444.123565,-2516.700203,-77069.207099
12161.770058,1776.494261,-9622.677246,-77682.083497
12161.772617,-4145.153275,-4885.359217,-76303.111601
12161.775176,-8142.265362,148.041188,-76762.768900
12161.777734,-3997.112087,-2812.782580,-77988.521696
12161.780293,-6809.894666,-2516.700203,-77835.302597
12161.782852,-1332.370696,-444.123565,-77069.207099
12161.785410,5033.400406,-7994.224174,-77375.645298
12161.787969,-3552.988522,-6661.853478,-77988.521696
12161.790528,-7254.018232,-1036.288319,-75996.673402
12161.793086,-444.123565,-5033.400406,-78601.398095
12161.795645,296.082377,-3256.906145,-81052.903688
12161.798204,-3552.988522,2960.823768,-78601.398095
12161.800762,1036.288319,-4589.276840,-76456.330700
12161.803321,2516.700203,-1776.494261,-76915.987999
12161.805880,-10214.842000,-4293.194464,-78907.836294
12161.808438,-3404.947333,-5329.482782,-77069.207099
12161.810997,-5181.441594,-7550.100608,-78294.959896
12161.813556,-5773.606348,-7846.182985,-75690.235202
12161.816115,-7698.141797,592.164754,-77069.207099
12161.818673,-2368.659014,-5625.565159,-77528.864398
12161.821232,-4737.318029,-3404.947333,-77528.864398
12161.823791,-1628.453072,1036.288319,-77835.302597
12161.826349,5625.565159,-5329.482782,-78141.740796
12161.828908,-1332.370696,-4737.318029,-78141.740796
12161.831467,-3256.906145,-296.082377,-75230.577904
12161.834025,7402.059420,888.247130,-77988.521696
12161.836584,4441.235652,4441.235652,-78294.959896
12161.839146,-6513.812290,3997.112087,-78294.959896
12161.841709,6217.729913,2220.617826,-78141.740796
12161.844271,5773.606348,1332.370696,-78601.398095
12161.846833,2664.741391,7550.100608,-78141.740796
12161.849396,6809.894666,-2220.617826,-78754.617194
12161.851958,3701.029710,-2072.576638,-79061.055394
12161.854520,-3997.112087,2664.741391,-77375.645298
12161.857083,3404.947333,3404.947333,-76303.111601
12161.859645,5329.482782,444.123565,-77835.302597
12161.862207,3404.947333,3256.906145,-77988.521696
12161.864770,1480.411884,4293.194464,-77835.302597
12161.867332,2516.700203,-1480.411884,-76915.987999
12161.869894,-4885.359217,1924.535449,-77682.083497
12161.872457,-592.164754,-1480.411884,-80440.027290
12161.875019,8438.347739,1036.288319,-78294.959896
12161.877581,-3849.070898,2960.823768,-77375.645298
12161.880144,4589.276840,6365.771101,-75843.454302
12161.882706,6513.812290,1628.453072,-76915.987999
12161.885268,4885.359217,3404.947333,-76915.987999
12161.887831,5921.647536,3997.112087,-77835.302597
12161.890393,6365.771101,-296.082377,-77375.645298
12161.892955,-888.247130,1036.288319,-76762.768900
12161.895518,296.082377,1332.370696,-77835.302597
12161.898080,444.123565,-296.082377,-78294.959896
12161.900642,3108.864956,-296.082377,-78141.740796
12161.903205,-2812.782580,3404.947333,-78601.398095
12161.905767,-2516.700203,-6661.853478,-79061.055394
12161.908329,-3701.029710,-5625.565159,-75537.016103
12161.910892,-2220.617826,-2812.782580,-76303.111601
12161.913454,4293.194464,-8586.388927,-77069.207099
12161.916016,-2664.741391,-6217.729913,-78601.398095
12161.918579,-6661.853478,-2516.700203,-77682.083497
12161.921141,-2368.659014,-4293.194464,-77069.207099
12161.923703,-2812.782580,-1332.370696,-78754.617194
12161.926266,-6513.812290,740.205942,-77069.207099
12161.928828,3997.112087,-5921.647536,-77835.302597
12161.931390,2220.617826,-4145.153275,-77988.521696
12161.933953,-6661.853478,-5033.400406,-78448.178995
12161.936515,444.123565,-1332.370696,-77835.302597
12161.939077,-1184.329507,-9030.512492,-78907.836294
12161.941643,-2960.823768,7254.018232,-76762.768900
12161.944208,1628.453072,-5033.400406,-76609.549800
12161.946774,-1924.535449,-3997.112087,-76456.330700
12161.949339,-3849.070898,-4293.194464,-77835.302597
12161.951905,-5329.482782,-6809.894666,-77528.864398
12161.954470,-3997.112087,-6365.771101,-76609.549800
12161.957036,-11695.253884,-5921.647536,-77528.864398
12161.959601,-5033.400406,-2072.576638,-77069.207099
12161.962167,-2220.617826,-6069.688724,-79061.055394
12161.964732,-8438.347739,-296.082377,-77528.864398
12161.967298,1776.494261,-2516.700203,-78448.178995
12161.969863,8734.430116,-4589.276840,-78448.178995
12161.972429,-5921.647536,-2664.741391,-77375.645298
12161.974994,-740.205942,-1480.411884,-76609.549800
12161.977560,5773.606348,-444.123565,-76762.768900
12161.980125,2220.617826,1184.329507,-78294.959896
12161.982691,-4145.153275,6513.812290,-77988.521696
12161.985256,2368.659014,-444.123565,-77528.864398
12161.987822,-1628.453072,3701.029710,-76915.987999
12161.990387,6957.935855,5181.441594,-77682.083497
12161.992953,6809.894666,-1776.494261,-78754.617194
12161.995518,4145.153275,148.041188,-77988.521696
12161.998084,-2812.782580,1332.370696,-78294.959896
12162.000649,3997.112087,2664.741391,-77835.302597
12162.003215,740.205942,1184.329507,-76149.892501
12162.005780,2664.741391,5181.441594,-77375.645298
12162.008346,6365.771101,-3108.864956,-79520.712692
12162.010911,444.123565,-1628.453072,-77835.302597
12162.013477,-4145.153275,2072.576638,-75843.454302
12162.016042,-1036.288319,2072.576638,-78448.178995
12162.018608,7254.018232,-592.164754,-79980.369991
12162.021173,-2220.617826,6365.771101,-77222.426198
12162.023739,9770.718434,2812.782580,-76609.549800
12162.026304,9030.512492,2072.576638,-79061.055394
12162.028870,4441.235652,5625.565159,-79214.274493
12162.031435,6661.853478,740.205942,-78448.178995
12162.034001,6957.935855,2516.700203,-77222.426198
12162.036566,-3404.947333,2664.741391,-79061.055394
12162.039132,-444.123565,-296.082377,-77988.521696
12162.041697,1480.411884,-2368.659014,-77682.083497
12162.044243,-148.041188,3552.988522,-76915.987999
12162.046782,-2812.782580,-444.123565,-77988.521696
12162.049321,-1184.329507,-4589.276840,-77988.521696
12162.051860,-7254.018232,-6217.729913,-77375.645298
12162.054399,1332.370696,-5033.400406,-77375.645298
12162.056938,-888.247130,-5773.606348,-78448.178995
12162.059477,-4293.194464,-4885.359217,-77835.302597
12162.062016,-6661.853478,-1628.453072,-78141.740796
12162.064555,-2072.576638,-3256.906145,-76915.987999
12162.067094,-7698.141797,-2960.823768,-77375.645298
12162.069633,-2664.741391,-1332.370696,-77222.426198
12162.072172,2960.823768,-8290.306550,-77988.521696
12162.074711,-5181.441594,-5625.565159,-76762.768900
12162.077250,-4441.235652,-296.082377,-76762.768900
12162.079789,148.041188,-6069.688724,-78754.617194
12162.082328,2220.617826,-6513.812290,-80440.027290
12162.084867,-3256.906145,1776.494261,-77222.426198
12162.087406,1184.329507,-4885.359217,-76456.330700
12162.089945,-1480.411884,-4885.359217,-77682.083497
12162.092484,-6661.853478,-6217.729913,-78601.398095
12162.095023,888.247130,-7550.100608,-77222.426198
12162.097562,-9918.759623,-6365.771101,-76303.111601
12162.100101,-7402.059420,-1332.370696,-75230.577904
12162.102640,-3404.947333,-7402.059420,-77988.521696
12162.105179,-1628.453072,-3701.029710,-78448.178995
12162.107718,-2664.741391,296.082377,-77988.521696
12162.110257,6069.688724,-1776.494261,-78601.398095
12162.112796,5181.441594,-2072.576638,-78294.959896
12162.115335,-7402.059420,-1036.288319,-77222.426198
12162.117874,8586.388927,1776.494261,-76609.549800
12162.120414,3849.070898,1480.411884,-78294.959896
12162.122953,-3701.029710,5625.565159,-77988.521696
12162.125492,4589.276840,2960.823768,-77835.302597
12162.128031,6069.688724,1036.288319,-77988.521696
12162.130570,1480.411884,4589.276840,-77222.426198
12162.133109,4293.194464,1776.494261,-77682.083497
12162.135648,5921.647536,-1628.453072,-78601.398095
12162.138187,-1036.288319,3404.947333,-76762.768900
12162.140726,-740.205942,1480.411884,-77069.207099
12162.143265,7105.977043,148.041188,-77988.521696
12162.145783,1924.535449,4145.153275,-79061.055394
12162.148301,444.123565,2664.741391,-77835.302597
12162.150819,3404.947333,-4589.276840,-76915.987999
12162.153337,-2072.576638,-740.205942,-78448.178995
12162.155855,592.164754,3256.906145,-76149.892501
12162.158373,4737.318029,-1924.535449,-77375.645298
12162.160891,3108.864956,2812.782580,-76609.549800
12162.163409,1036.288319,7846.182985,-76456.330700
12162.165927,10066.800811,2516.700203,-76303.111601
12162.168446,2072.576638,1480.411884,-77069.207099
12162.170964,444.123565,7402.059420,-79061.055394
12162.173482,8438.347739,444.123565,-77835.302597
12162.176000,2368.659014,-1036.288319,-77682.083497
12162.178518,-5477.523971,1332.370696,-78448.178995
12162.181036,2960.823768,-2072.576638,-77988.521696
12162.183554,1036.288319,592.164754,-77069.207099
12162.186072,-9326.594869,592.164754,-76915.987999
12162.188590,592.164754,-8882.471304,-78141.740796
12162.191108,-2664.741391,-6957.935855,-77222.426198
12162.193626,-6069.688724,-2072.576638,-76456.330700
12162.196144,1036.288319,-4589.276840,-78754.617194
12162.198662,-1924.535449,-6513.812290,-78601.398095
12162.201180,-6809.894666,-888.247130,-77375.645298
12162.203699,-2516.700203,-1628.453072,-76762.768900
12162.206217,444.123565,-2220.617826,-77988.521696
12162.208735,-4441.235652,-2220.617826,-77528.864398
12162.211253,4737.318029,-4145.153275,-77988.521696
12162.213771,-2072.576638,-9326.594869,-77988.521696
12162.216289,-6365.771101,-1924.535449,-76915.987999
12162.218807,-444.123565,-2072.576638,-79214.274493
12162.221325,148.041188,-2664.741391,-77988.521696
12162.223843,1924.535449,-1184.329507,-78754.617194
12162.226361,-5921.647536,-3701.029710,-77069.207099
12162.228879,2516.700203,-6365.771101,-77222.426198
12162.231397,-9178.553681,-9178.553681,-77069.207099
12162.233915,-7994.224174,-740.205942,-77375.645298
12162.236433,-6661.853478,-8438.347739,-78294.959896
12162.238952,-3552.988522,-5625.565159,-78294.959896
12162.241470,-5181.441594,-4589.276840,-79061.055394
12162.243988,5329.482782,-740.205942,-77835.302597
12162.246518,5921.647536,-2072.576638,-79367.493593
12162.249048,-3997.112087,740.205942,-78754.617194
12162.251578,2220.617826,-2072.576638,-77069.207099
12162.254109,6069.688724,1332.370696,-77528.864398
12162.256639,0.000000,7254.018232,-78754.617194
12162.259169,2220.617826,444.123565,-79520.712692
12162.261699,5181.441594,-1332.370696,-78448.178995
12162.264230,1036.288319,1628.453072,-78294.959896
12162.266760,5773.606348,4441.235652,-77682.083497
12162.269290,7105.977043,1628.453072,-77682.083497
12162.271820,-1036.288319,1184.329507,-77069.207099
12162.274351,2960.823768,740.205942,-77222.426198
12162.276881,3404.947333,2368.659014,-77528.864398
12162.279411,-2960.823768,5477.523971,-78754.617194
12162.281941,5033.400406,1036.288319,-79673.931792
12162.284471,3108.864956,-6513.812290,-79367.493593
12162.287002,-1036.288319,1036.288319,-76303.111601
12162.289532,-1480.411884,1332.370696,-77835.302597
12162.292062,3108.864956,-296.082377,-77375.645298
12162.294592,0.000000,2368.659014,-78294.959896
12162.297123,3849.070898,7105.977043,-76609.549800
12162.299653,7698.141797,1184.329507,-77682.083497
12162.302183,3997.112087,3552.988522,-76609.549800
12162.304713,4589.276840,2664.741391,-78754.617194
12162.307244,8734.430116,1628.453072,-78601.398095
12162.309774,3256.906145,1184.329507,-78294.959896
12162.312304,-6217.729913,2812.782580,-77682.083497
12162.314834,2960.823768,-3997.112087,-78448.178995
12162.317365,888.247130,-740.205942,-77069.207099
12162.319895,-6661.853478,2220.617826,-76149.892501
12162.322425,-3256.906145,-8438.347739,-77835.302597
12162.324955,-3404.947333,-6809.894666,-77835.302597
12162.327485,-5033.400406,-2220.617826,-78294.959896
12162.330016,1480.411884,-5329.482782,-79367.493593
12162.332546,0.000000,-5625.565159,-77528.864398
12162.335076,-8734.430116,-888.247130,-76456.330700
12162.337606,-1184.329507,-2368.659014,-77222.426198
12162.340137,-2368.659014,-5033.400406,-78601.398095
12162.342667,-4293.194464,-2516.700203,-78448.178995
12162.345197,-888.247130,-4589.276840,-78448.178995
12162.347738,-740.205942,-6513.812290,-76609.549800
12162.350278,-3701.029710,-2220.617826,-75996.673402
12162.352819,-2368.659014,1184.329507,-78141.740796
12162.355359,1776.494261,-3256.906145,-77682.083497
12162.357900,-2812.782580,-3701.029710,-78448.178995
12162.360441,-1184.329507,-1480.411884,-76303.111601
12162.362981,-2664.741391,-6957.935855,-78141.740796
12162.365522,-8290.306550,-5181.441594,-77528.864398
12162.368063,-6365.771101,-6809.894666,-78448.178995
12162.370603,-5329.482782,-7254.018232,-76149.892501
12162.373144,-10214.842000,-8290.306550,-76915.987999
12162.375684,-3404.947333,-2072.576638,-76762.768900
12162.378225,3997.112087,-4145.153275,-75996.673402
12162.380766,1184.329507,-1628.453072,-75996.673402
12162.383306,-2516.700203,2220.617826,-76609.549800
12162.385847,2960.823768,-2812.782580,-77528.864398
12162.388387,-1332.370696,1184.329507,-76915.987999
12162.390928,3997.112087,5033.400406,-77682.083497
12162.393469,4145.153275,-2072.576638,-79827.150892
12162.396009,3701.029710,888.247130,-77528.864398
12162.398550,444.123565,3849.070898,-77375.645298
12162.401090,9474.636058,4145.153275,-77988.521696
12162.403631,3404.947333,444.123565,-76456.330700
12162.406172,888.247130,3701.029710,-77528.864398
12162.408712,4441.235652,-740.205942,-76915.987999
12162.411253,888.247130,-148.041188,-77835.302597
12162.413793,-296.082377,6365.771101,-78294.959896
12162.416334,5921.647536,-1924.535449,-79673.931792
12162.418875,2664.741391,0.000000,-78294.959896
12162.421415,-1628.453072,592.164754,-75843.454302
12162.423956,1184.329507,296.082377,-76456.330700
12162.426496,6365.771101,2664.741391,-78601.398095
12162.429037,-2516.700203,5329.482782,-78141.740796
12162.431578,10510.924376,3108.864956,-78448.178995
12162.434118,7994.224174,2960.823768,-77988.521696
12162.436659,3701.029710,5033.400406,-77988.521696
12162.439199,4145.153275,3701.029710,-77528.864398
12162.441740,8438.347739,2368.659014,-76915.987999
12162.444281,-3552.988522,1776.494261,-77375.645298
12162.446821,-592.164754,0.000000,-77069.207099
12162.449370,2664.741391,148.041188,-77222.426198
12162.451918,-1776.494261,2220.617826,-77069.207099
12162.454467,-6217.729913,-6217.729913,-79367.493593
12162.457015,-2664.741391,-7550.100608,-79367.493593
12162.459564,-3108.864956,-4885.359217,-79214.274493
12162.462112,-2664.741391,-1480.411884,-78294.959896
12162.464661,740.205942,-5329.482782,-76303.111601
12162.467209,-5033.400406,-7105.977043,-77988.521696
12162.469758,-4293.194464,2072.576638,-76149.892501
12162.472307,-4441.235652,-4885.359217,-77222.426198
12162.474855,-4737.318029,-2812.782580,-77069.207099
12162.477404,-592.164754,-4885.359217,-78754.617194
12162.479952,-740.205942,-4737.318029,-77682.083497
12162.482501,-6513.812290,-5477.523971,-77069.207099
12162.485049,-1628.453072,2072.576638,-78754.617194
12162.487598,1628.453072,-4145.153275,-78907.836294
12162.490146,2220.617826,-3997.112087,-77222.426198
12162.492695,-5477.523971,-1924.535449,-75843.454302
12162.495243,1628.453072,-8290.306550,-76915.987999
12162.497792,-7846.182985,-6217.729913,-77682.083497
12162.500341,-8734.430116,-3256.906145,-77835.302597
12162.502889,-7402.059420,-9770.718434,-77528.864398
12162.505438,-8734.430116,-5181.441594,-76456.330700
12162.507986,-7994.224174,-4737.318029,-77835.302597
12162.510535,7105.977043,-1924.535449,-76762.768900
12162.513083,7994.224174,-888.247130,-77835.302597
12162.515632,-5033.400406,444.123565,-78601.398095
12162.518180,2664.741391,1332.370696,-77835.302597
12162.520729,2368.659014,-296.082377,-77222.426198
12162.523277,-592.164754,6661.853478,-77528.864398
12162.525826,4885.359217,-740.205942,-78141.740796
12162.528375,2960.823768,-1184.329507,-77682.083497
12162.530923,-740.205942,3404.947333,-76303.111601
12162.533472,8142.265362,5329.482782,-77069.207099
12162.536020,3701.029710,2220.617826,-78754.617194
12162.538569,1036.288319,2516.700203,-78141.740796
12162.541117,1628.453072,2220.617826,-76915.987999
12162.543666,5625.565159,0.000000,-77682.083497
12162.546214,-592.164754,3404.947333,-79214.274493
12162.548763,3256.906145,2072.576638,-77988.521696
12162.551318,3997.112087,-3552.988522,-77222.426198
12162.553874,-2960.823768,-1184.329507,-77069.207099
12162.556429,-1776.494261,4293.194464,-76303.111601
12162.558984,4293.194464,-148.041188,-77222.426198
12162.561540,1776.494261,1332.370696,-78294.959896
12162.564095,4293.194464,9918.759623,-77528.864398
12162.566650,9622.677246,2368.659014,-77375.645298
12162.569206,2516.700203,2516.700203,-76303.111601
12162.571761,7550.100608,1776.494261,-78601.398095
12162.574316,6365.771101,0.000000,-76149.892501
12162.576872,444.123565,592.164754,-77988.521696
12162.579427,-4293.194464,1776.494261,-77375.645298
12162.581982,5033.400406,-2664.741391,-78448.178995
12162.584538,-6809.894666,-5921.647536,-77682.083497
12162.587093,-7105.977043,-1776.494261,-75537.016103
12162.589649,1184.329507,-10066.800811,-77222.426198
12162.592204,-3404.947333,-5033.400406,-77835.302597
12162.594759,-5329.482782,-3404.947333,-78754.617194
12162.597315,-592.164754,-3108.864956,-76762.768900
12162.599870,-1036.288319,-5329.482782,-77988.521696
12162.602425,-9178.553681,444.123565,-76915.987999
12162.604981,0.000000,-4145.153275,-77835.302597
12162.607536,148.041188,-5033.400406,-78907.836294
12162.610091,-6809.894666,-1184.329507,-79061.055394
12162.612647,2072.576638,-5773.606348,-77682.083497
12162.615202,-1776.494261,-5773.606348,-77375.645298
12162.617757,-4145.153275,-3256.906145,-79214.274493
12162.620313,-1924.535449,-1924.535449,-76762.768900
12162.622868,2960.823768,-5181.441594,-76149.892501
12162.625423,-7105.977043,-1776.494261,-76609.549800
12162.627979,-4885.359217,-6217.729913,-78294.959896
12162.630534,-4589.276840,-6809.894666,-78601.398095
12162.633089,-14952.160028,-4293.194464,-78448.178995
12162.635645,-2812.782580,-5033.400406,-77835.302597
12162.638200,-1924.535449,-10658.965565,-77069.207099
12162.640756,1332.370696,-3701.029710,-76609.549800
12162.643311,-592.164754,4293.194464,-78141.740796
12162.645866,1184.329507,-1480.411884,-77375.645298
12162.648422,1924.535449,-444.123565,-79214.274493
12162.650977,-1924.535449,5181.441594,-78294.959896
12162.653538,8290.306550,3997.112087,-77528.864398
12162.656099,2368.659014,-148.041188,-77528.864398
12162.658660,-444.123565,3849.070898,-76609.549800
12162.661221,6809.894666,-1332.370696,-77988.521696
12162.663782,4145.153275,4293.194464,-76456.330700
12162.666343,-1332.370696,2368.659014,-79367.493593
12162.668904,5181.441594,3552.988522,-77988.521696
12162.671465,4145.153275,148.041188,-77988.521696
12162.674026,-4589.276840,5773.606348,-76149.892501
12162.676587,5921.647536,148.041188,-78907.836294
12162.679148,5921.647536,-2960.823768,-79367.493593
12162.681709,-2664.741391,3256.906145,-76915.987999
12162.684270,1480.411884,-592.164754,-77222.426198
12162.686832,5773.606348,2516.700203,-76762.768900
12162.689393,-1036.288319,1628.453072,-79061.055394
12162.691954,5625.565159,7254.018232,-77375.645298
12162.694515,10066.800811,296.082377,-78907.836294
12162.697076,4885.359217,6809.894666,-75230.577904
12162.699637,4441.235652,740.205942,-78448.178995
12162.702198,10658.965565,2368.659014,-76762.768900
12162.704759,-3997.112087,2516.700203,-76915.987999
12162.707320,592.164754,-740.205942,-76456.330700
12162.709881,1332.370696,-3701.029710,-78294.959896
12162.712442,-2516.700203,-2812.782580,-78141.740796
12162.715003,-7254.018232,-3256.906145,-76915.987999
12162.717564,-1332.370696,-7846.182985,-79061.055394
12162.720125,-4589.276840,-7402.059420,-77682.083497
12162.722686,-2516.700203,-2664.741391,-76915.987999
12162.725247,-148.041188,-6661.853478,-77222.426198
12162.727808,-6217.729913,-3849.070898,-76303.111601
12162.730369,-2664.741391,-444.123565,-76762.768900
12162.732930,-2960.823768,-4589.276840,-78294.959896
12162.735491,-1036.288319,-4737.318029,-79214.274493
12162.738052,-7698.141797,-1184.329507,-78141.740796
12162.740613,4885.359217,-4293.194464,-78754.617194
12162.743174,-3849.070898,-5477.523971,-77375.645298
12162.745736,0.000000,-444.123565,-78141.740796
12162.748297,148.041188,-3552.988522,-78907.836294
12162.750858,-888.247130,-2516.700203,-77222.426198
12162.753419,-5477.523971,-2960.823768,-77375.645298
12162.755984,-1036.288319,-4737.318029,-77375.645298
12162.758550,-6661.853478,-7846.182985,-78294.959896
12162.761116,-14211.954086,-5181.441594,-77222.426198
12162.763682,-3849.070898,-5477.523971,-78448.178995
12162.766247,-3701.029710,-6661.853478,-78294.959896
12162.768813,-2220.617826,-3404.947333,-78601.398095
12162.771379,9178.553681,-1332.370696,-78754.617194
12162.773944,2368.659014,1184.329507,-77682.083497
12162.776510,-3997.112087,148.041188,-76915.987999
12162.779076,3108.864956,4441.235652,-78141.740796
12162.781642,6069.688724,1776.494261,-78141.740796
12162.784207,-592.164754,2812.782580,-76915.987999
12162.786773,2220.617826,1628.453072,-76609.549800
12162.789339,7550.100608,296.082377,-77528.864398
12162.791905,888.247130,2812.782580,-76762.768900
12162.794470,5329.482782,2516.700203,-78907.836294
12162.797036,5773.606348,3256.906145,-78448.178995
12162.799602,296.082377,592.164754,-76609.549800
12162.802167,-3256.906145,6069.688724,-77988.521696
12162.804733,5181.441594,-2516.700203,-77375.645298
12162.807299,0.000000,-2516.700203,-77528.864398
12162.809865,592.164754,4885.359217,-76609.549800
12162.812430,2220.617826,-3108.864956,-76456.330700
12162.814996,740.205942,3256.906145,-75996.673402
12162.817562,-1332.370696,2368.659014,-78294.959896
12162.820127,9622.677246,3849.070898,-78294.959896
12162.822693,7994.224174,2664.741391,-79061.055394
12162.825259,4441.235652,7254.018232,-78141.740796
12162.827825,7105.977043,-740.205942,-78754.617194
12162.830390,4885.359217,3552.988522,-77682.083497
12162.832956,-2960.823768,2072.576638,-77069.207099
12162.835522,3108.864956,-1036.288319,-76915.987999
12162.838088,-1924.535449,-2664.741391,-77222.426198
12162.840653,-1480.411884,2516.700203,-76762.768900
12162.843219,-5477.523971,-11547.212695,-78448.178995
12162.845785,148.041188,-8586.388927,-77835.302597
12162.848350,-6513.812290,-2664.741391,-78448.178995
12162.850916,740.205942,-4737.318029,-77988.521696
12162.853482,740.205942,-5477.523971,-78294.959896
12162.856048,-7254.018232,-1184.329507,-77528.864398
12162.858617,1036.288319,-3701.029710,-77835.302597
12162.861186,-2960.823768,-2220.617826,-78141.740796
12162.863755,-7105.977043,-740.205942,-79367.493593
12162.866324,-1036.288319,-5181.441594,-80593.246390
12162.868893,3997.112087,-3108.864956,-78448.178995
12162.871462,-3256.906145,-7105.977043,-77069.207099
12162.874031,-148.041188,1628.453072,-75690.235202
12162.876600,1924.535449,-5625.565159,-77988.521696
12162.879169,-4293.194464,888.247130,-78294.959896
12162.881738,-3552.988522,-5181.441594,-77528.864398
12162.884308,-1776.494261,-4589.276840,-78141.740796
12162.886877,-15248.242405,-6217.729913,-79980.369991
12162.889446,-5181.441594,-4885.359217,-75230.577904
12162.892015,-3701.029710,-11103.089130,-76456.330700
12162.894584,-6513.812290,-5773.606348,-75996.673402
12162.897153,4737.318029,-1184.329507,-77988.521696
12162.899722,4589.276840,1036.288319,-77069.207099
12162.902291,-6661.853478,-1628.453072,-76609.549800
12162.904860,1332.370696,4293.194464,-76762.768900
12162.907429,6069.688724,1332.370696,-79367.493593
12162.909998,592.164754,5033.400406,-76456.330700
12162.912567,3552.988522,4589.276840,-77069.207099
12162.915137,8734.430116,-1776.494261,-78141.740796
12162.917706,1184.329507,1332.370696,-77988.521696
12162.920275,1776.494261,5033.400406,-77069.207099
12162.922844,5773.606348,-1184.329507,-78294.959896
12162.925413,3552.988522,888.247130,-78754.617194
12162.927982,-3108.864956,4589.276840,-77835.302597
12162.930551,5477.523971,-1628.453072,-77069.207099
12162.933120,888.247130,444.123565,-77528.864398
12162.935689,-1776.494261,1184.329507,-78448.178995
12162.938258,2812.782580,-888.247130,-76303.111601
12162.940827,2220.617826,2220.617826,-76609.549800
12162.943397,-1480.411884,1776.494261,-79367.493593
12162.945966,8290.306550,7550.100608,-78448.178995
12162.948535,7846.182985,1332.370696,-78907.836294
12162.951104,6809.894666,9326.594869,-78754.617194
12162.953673,11399.171507,2072.576638,-79520.712692
12162.956242,6217.729913,2072.576638,-79520.712692
12162.958811,-3404.947333,444.123565,-78294.959896
12162.961383,-444.123565,444.123565,-77069.207099
12162.963955,3701.029710,-2220.617826,-76915.987999
12162.966527,-4589.276840,1184.329507,-77069.207099
12162.969099,-4589.276840,-7105.977043,-78907.836294
12162.971670,-2072.576638,-6365.771101,-77069.207099
12162.974242,-6513.812290,-4885.359217,-78294.959896
12162.976814,1332.370696,-3552.988522,-77682.083497
12162.979386,-148.041188,-6365.771101,-78754.617194
12162.981958,-6957.935855,-3256.906145,-75690.235202
12162.984530,-444.123565,740.205942,-76149.892501
12162.987102,-4737.318029,-5033.400406,-78294.959896
12162.989674,-5625.565159,-4441.235652,-77222.426198
12162.992246,-1332.370696,-2664.741391,-78907.836294
12162.994817,1924.535449,-2812.782580,-77682.083497
12162.997389,-3256.906145,-8290.306550,-77222.426198
12162.999961,-148.041188,2072.576638,-75690.235202
12163.002533,1184.329507,-6661.853478,-78141.740796
12163.005105,0.000000,-6217.729913,-76609.549800
12163.007677,-3849.070898,740.205942,-76609.549800
12163.010249,-3404.947333,-9770.718434,-78141.740796
12163.012821,-12139.377449,-10066.800811,-77988.521696
12163.015392,-10510.924376,-4293.194464,-77069.207099
12163.017964,-5181.441594,-10510.924376,-76149.892501
12163.020536,-5181.441594,-5033.400406,-76149.892501
12163.023108,5181.441594,-592.164754,-77528.864398
12163.025680,3256.906145,0.000000,-78294.959896
12163.028252,740.205942,888.247130,-76762.768900
12163.030824,-1628.453072,4885.359217,-78294.959896
12163.033396,7254.018232,4441.235652,-78754.617194
12163.035968,2812.782580,2220.617826,-78294.959896
12163.038539,-1332.370696,2960.823768,-78294.959896
12163.041111,7698.141797,-444.123565,-77988.521696
12163.043699,3552.988522,296.082377,-78294.959896
12163.046273,-1184.329507,6365.771101,-77222.426198
12163.048848,5033.400406,4145.153275,-77528.864398
12163.051422,6513.812290,1184.329507,-78448.178995
12163.053997,-5033.400406,6217.729913,-77988.521696
12163.056571,592.164754,3997.112087,-77682.083497
12163.059145,4737.318029,-5477.523971,-79214.274493
12163.061720,-1480.411884,444.123565,-76762.768900
12163.064294,1332.370696,2664.741391,-74770.920605
12163.066869,-148.041188,148.041188,-75843.454302
12163.069443,1776.494261,1628.453072,-78754.617194
12163.072018,3997.112087,5329.482782,-79980.369991
12163.074592,13027.624579,7550.100608,-77069.207099
12163.077167,9918.759623,3997.112087,-77835.302597
12163.079741,2368.659014,5477.523971,-79214.274493
12163.082316,2072.576638,-1036.288319,-77988.521696
12163.084890,-1036.288319,-2368.659014,-78141.740796
12163.087465,-2812.782580,1924.535449,-77069.207099
12163.090039,5625.565159,-2664.741391,-77682.083497
12163.092614,-8142.265362,-8142.265362,-78294.959896
12163.095188,-7254.018232,-5625.565159,-76762.768900
12163.097763,-1036.288319,-5181.441594,-77835.302597
12163.100337,-2072.576638,-4293.194464,-77835.302597
12163.102911,-7254.018232,-3256.906145,-78448.178995
12163.105486,1036.288319,-3701.029710,-78141.740796
12163.108060,740.205942,-2516.700203,-77988.521696
12163.110635,-7402.059420,-1184.329507,-78141.740796
12163.113209,-148.041188,-2960.823768,-77375.645298
12163.115784,-1480.411884,-7994.224174,-77528.864398
12163.118358,-1036.288319,-1628.453072,-76609.549800
12163.120933,-592.164754,-3997.112087,-78754.617194
12163.123507,2220.617826,-3108.864956,-78294.959896
12163.126082,-148.041188,-4885.359217,-77069.207099
12163.128656,-4737.318029,-2368.659014,-75537.016103
12163.131231,1184.329507,-7698.141797,-76456.330700
12163.133805,-12139.377449,-3997.112087,-76303.111601
12163.136380,-9622.677246,-7698.141797,-77835.302597
12163.138954,-6809.894666,-12435.459826,-78907.836294
12163.141528,-6513.812290,-4885.359217,-76609.549800
12163.144103,296.082377,-3701.029710,-77835.302597
12163.146678,8438.347739,-2664.741391,-77988.521696
12163.149254,-7994.224174,-1036.288319,-77069.207099
12163.151829,1332.370696,3552.988522,-75690.235202
12163.154405,4737.318029,1332.370696,-76762.768900
12163.156980,1184.329507,3404.947333,-75690.235202
12163.159555,2072.576638,5477.523971,-77069.207099
12163.162131,6365.771101,888.247130,-77069.207099
12163.164706,5181.441594,888.247130,-78294.959896
12163.167282,-2516.700203,4441.235652,-79520.712692
12163.169857,7105.977043,-1036.288319,-79673.931792
12163.172433,5033.400406,444.123565,-77682.083497
12163.175008,-148.041188,7105.977043,-76915.987999
12163.177584,3849.070898,-3997.112087,-77222.426198
12163.180159,3404.947333,888.247130,-76149.892501
12163.182734,0.000000,-296.082377,-78601.398095
12163.185310,-1184.329507,740.205942,-77069.207099
12163.187885,5181.441594,1924.535449,-77988.521696
12163.190461,-3552.988522,3108.864956,-79214.274493
12163.193036,10066.800811,6365.771101,-77682.083497
12163.195612,9474.636058,2812.782580,-79520.712692
12163.198187,8734.430116,8734.430116,-78448.178995
12163.200762,9326.594869,4885.359217,-79367.493593
12163.203338,7105.977043,3108.864956,-79827.150892
12163.205913,-6069.688724,1184.329507,-79520.712692
12163.208489,-592.164754,1480.411884,-75843.454302
12163.211064,3701.029710,-2812.782580,-77528.864398
12163.213640,-7402.059420,-1924.535449,-76762.768900
12163.216215,-5181.441594,-7550.100608,-78141.740796
12163.218790,1332.370696,-9178.553681,-77528.864398
12163.221366,-7698.141797,-3404.947333,-76303.111601
12163.223941,-1628.453072,-2960.823768,-77988.521696
12163.226517,-740.205942,-6365.771101,-78448.178995
12163.229092,-4145.153275,-4885.359217,-77528.864398
12163.231668,-5181.441594,1332.370696,-76456.330700
12163.234243,-3701.029710,-6809.894666,-77528.864398
12163.236818,-6661.853478,-5033.400406,-77069.207099
12163.239394,-2368.659014,-2072.576638,-77988.521696
12163.241969,-2368.659014,-4885.359217,-76762.768900
12163.244545,-1184.329507,-1332.370696,-77222.426198
12163.247120,-3108.864956,-1628.453072,-78141.740796
12163.249696,2220.617826,-3404.947333,-77069.207099
12163.252273,-2220.617826,-7550.100608,-79061.055394
12163.254849,-8290.306550,-2960.823768,-77682.083497
12163.257425,-7254.018232,-9326.594869,-79673.931792
12163.260002,-10066.800811,-7402.059420,-76762.768900
12163.262578,-10658.965565,-5477.523971,-77375.645298
12163.265154,2812.782580,-8290.306550,-76303.111601
12163.267731,4145.153275,-2664.741391,-77375.645298
12163.270307,-1036.288319,5181.441594,-77988.521696
12163.272883,-1184.329507,-5033.400406,-78294.959896
12163.275460,6069.688724,4441.235652,-78448.178995
12163.278036,-444.123565,6069.688724,-79061.055394
12163.280612,7105.977043,3701.029710,-78601.398095
12163.283189,5329.482782,-1332.370696,-77988.521696
12163.285765,2516.700203,4293.194464,-77222.426198
12163.288341,5477.523971,2664.741391,-78601.398095
12163.290918,4589.276840,888.247130,-79061.055394
12163.293494,-1776.494261,3108.864956,-79827.150892
12163.296070,6957.935855,5033.400406,-78141.740796
12163.298647,1924.535449,1332.370696,-77682.083497
12163.301223,-2072.576638,-1036.288319,-77222.426198
12163.303799,1628.453072,-592.164754,-77682.083497
12163.306376,1924.535449,-1036.288319,-78141.740796
12163.308952,-1480.411884,3701.029710,-77375.645298
12163.311528,-296.082377,3404.947333,-77682.083497
12163.314105,7550.100608,2072.576638,-77682.083497
12163.316681,296.082377,6069.688724,-79061.055394
12163.319257,8586.388927,10214.842000,-77835.302597
12163.321834,8586.388927,1184.329507,-77988.521696
12163.324410,2960.823768,3849.070898,-77528.864398
12163.326986,-3997.112087,1480.411884,-77682.083497
12163.329563,4145.153275,-3997.112087,-76149.892501
12163.332139,-2960.823768,-444.123565,-75843.454302
12163.334715,-1924.535449,-2960.823768,-78294.959896
12163.337292,-5181.441594,-6365.771101,-78754.617194
12163.339868,-5033.400406,-6513.812290,-76456.330700
12163.342444,-5773.606348,-2368.659014,-78141.740796
12163.345021,444.123565,-7994.224174,-79061.055394
12163.347597,-888.247130,-6513.812290,-77682.083497
12163.350173,-6217.729913,740.205942,-76609.549800
12163.352750,888.247130,-4293.194464,-77222.426198
12163.355328,-3108.864956,-5329.482782,-77375.645298
12163.357905,-7550.100608,-888.247130,-77835.302597
12163.360482,2960.823768,-6217.729913,-77835.302597
12163.363059,-2220.617826,-6661.853478,-77835.302597
12163.365636,-3849.070898,1480.411884,-78294.959896
12163.368213,1776.494261,-5181.441594,-78141.740796
12163.370790,1036.288319,-3256.906145,-78448.178995
12163.373367,-5329.482782,-2072.576638,-77988.521696
12163.375944,-3849.070898,-5773.606348,-77682.083497
12163.378521,-6957.935855,-9622.677246,-79214.274493
12163.381098,-15396.283594,-5625.565159,-77682.083497
12163.383675,-444.123565,-9030.512492,-76915.987999
12163.386252,1924.535449,-5921.647536,-77835.302597
12163.388829,2220.617826,1480.411884,-77375.645298
12163.391406,-3108.864956,-2664.741391,-79827.150892
12163.393983,7402.059420,3701.029710,-77375.645298
12163.396560,-2664.741391,6365.771101,-77835.302597
12163.399137,6513.812290,6217.729913,-77528.864398
12163.401714,6069.688724,1036.288319,-79520.712692
12163.404292,-1184.329507,2664.741391,-77375.645298
12163.406869,5181.441594,1036.288319,-78907.836294
12163.409446,6661.853478,1036.288319,-79520.712692
12163.412023,-1924.535449,2812.782580,-77528.864398
12163.414600,6365.771101,3108.864956,-76456.330700
12163.417177,5921.647536,2220.617826,-76609.549800
12163.419754,-740.205942,1628.453072,-76609.549800
12163.422331,-1036.288319,296.082377,-77988.521696
12163.424908,1332.370696,-1184.329507,-77682.083497
12163.427485,-2812.782580,-2664.741391,-76762.768900
12163.430062,-296.082377,5477.523971,-77682.083497
12163.432639,8882.471304,1332.370696,-77528.864398
12163.435216,7846.182985,5181.441594,-76762.768900
12163.437793,7994.224174,5921.647536,-78448.178995
12163.440370,13767.830521,5033.400406,-77375.645298
12163.442947,4885.359217,3552.988522,-77682.083497
12163.445524,-1776.494261,5181.441594,-77988.521696
12163.448101,-1924.535449,-7105.977043,-78601.398095
12163.450678,-592.164754,888.247130,-76456.330700
12163.453255,-2664.741391,-2516.700203,-78141.740796
12163.455832,-4441.235652,-7402.059420,-78448.178995
12163.458409,0.000000,-8734.430116,-77375.645298
12163.460986,-6957.935855,-3404.947333,-76762.768900
12163.463563,444.123565,-2368.659014,-78141.740796
12163.466140,-1776.494261,-7402.059420,-78601.398095
12163.468717,-6365.771101,-444.123565,-77682.083497
12163.471294,1036.288319,-5033.400406,-77835.302597
12163.473871,-2368.659014,-3256.906145,-77069.207099
12163.476448,-2812.782580,-4885.359217,-77222.426198
12163.479024,-4885.359217,-1776.494261,-76915.987999
12163.481601,888.247130,-3849.070898,-77528.864398
12163.484178,2812.782580,-4145.153275,-77222.426198
12163.486755,-2664.741391,592.164754,-79367.493593
12163.489332,888.247130,-7105.977043,-77069.207099
12163.491909,-5773.606348,-6365.771101,-75996.673402
12163.494486,-9178.553681,-3701.029710,-75537.016103
12163.497063,-8734.430116,-10214.842000,-77835.302597
12163.499640,-13471.748144,-12731.542202,-78294.959896
12163.502217,-6661.853478,-1628.453072,-75996.673402
12163.504793,9030.512492,-3256.906145,-78448.178995
12163.507370,3108.864956,1776.494261,-78294.959896
12163.509947,-8142.265362,-592.164754,-79214.274493
12163.512524,6809.894666,3849.070898,-77375.645298
12163.515101,5181.441594,3552.988522,-77988.521696
12163.517678,-148.041188,9030.512492,-77528.864398
12163.520255,6217.729913,-592.164754,-79520.712692
12163.522832,5625.565159,-2220.617826,-76303.111601
12163.525409,-1332.370696,3849.070898,-77528.864398
12163.527986,4441.235652,1184.329507,-78754.617194
12163.530562,5477.523971,-1036.288319,-79061.055394
12163.533139,3701.029710,5773.606348,-77375.645298
12163.535716,3404.947333,3849.070898,-78754.617194
12163.538293,4589.276840,-2812.782580,-79214.274493
12163.540870,-3256.906145,4589.276840,-75690.235202
12163.543447,6069.688724,-2368.659014,-76915.987999
12163.546024,2516.700203,-2072.576638,-79214.274493
12163.548601,-2368.659014,3701.029710,-76456.330700
12163.551178,2960.823768,3108.864956,-77069.207099
12163.553754,13027.624579,5329.482782,-78907.836294
12163.556331,9030.512492,7550.100608,-77069.207099
12163.558908,9326.594869,4441.235652,-77835.302597
12163.561485,5477.523971,2812.782580,-79673.931792
12163.564062,-6661.853478,0.000000,-76456.330700
12163.566639,2220.617826,-1776.494261,-78141.740796
12163.569216,2516.700203,148.041188,-78448.178995
12163.571793,-9178.553681,-7254.018232,-78907.836294
12163.574369,-5477.523971,-6661.853478,-78294.959896
12163.576946,-740.205942,-9030.512492,-76609.549800
12163.579523,-5921.647536,-6217.729913,-76762.768900
12163.582100,-4737.318029,-444.123565,-78448.178995
12163.584677,1480.411884,-8586.388927,-78294.959896
12163.587254,-4737.318029,-2072.576638,-75077.358804
12163.589831,-5033.400406,2812.782580,-75383.797003
12163.592408,-6809.894666,-6365.771101,-79214.274493
12163.594984,-148.041188,-5033.400406,-77835.302597
12163.597561,-3701.029710,-1776.494261,-78294.959896
12163.600138,1332.370696,-5033.400406,-78754.617194
12163.602715,3108.864956,-3108.864956,-79367.493593
12163.605292,-5921.647536,-3256.906145,-78907.836294
12163.607869,3108.864956,-5773.606348,-76303.111601
12163.610446,-7698.141797,-7402.059420,-77222.426198
12163.613023,-10214.842000,-3108.864956,-76149.892501
12163.615599,-10214.842000,-10510.924376,-79367.493593
12163.618176,-2368.659014,-9770.718434,-77988.521696
12163.620753,-1628.453072,-3552.988522,-78294.959896
12163.623330,7994.224174,-740.205942,-79061.055394
12163.625907,296.082377,-296.082377,-79061.055394
12163.628484,-2960.823768,4885.359217,-76762.768900
12163.631061,7698.141797,5329.482782,-77528.864398
12163.633638,6513.812290,4589.276840,-77682.083497
12163.636214,-2812.782580,7550.100608,-78601.398095
12163.638791,4737.318029,-148.041188,-78294.959896
12163.641368,7698.141797,1776.494261,-76762.768900
12163.643945,-1628.453072,1924.535449,-77528.864398
12163.646522,3849.070898,296.082377,-79367.493593
12163.649099,8586.388927,0.000000,-77835.302597
12163.651676,0.000000,7254.018232,-76303.111601
12163.654253,-1628.453072,2812.782580,-76609.549800
12163.656829,2368.659014,1184.329507,-78754.617194
12163.659406,-1480.411884,-1036.288319,-79367.493593
12163.661983,-2664.741391,2664.741391,-77835.302597
12163.664560,7846.182985,-1332.370696,-77222.426198
12163.667137,740.205942,2368.659014,-76609.549800
12163.669714,5625.565159,9474.636058,-77069.207099
12163.672291,13323.706956,1332.370696,-78448.178995
12163.674868,6365.771101,7698.141797,-76149.892501
12163.677445,3552.988522,4885.359217,-78448.178995
12163.680021,-1036.288319,1036.288319,-78141.740796
12163.682598,2220.617826,-2072.576638,-76456.330700
12163.685175,-3849.070898,148.041188,-77528.864398
12163.687752,-2960.823768,-8290.306550,-79673.931792
12163.690329,-5477.523971,-11843.295072,-77835.302597
12163.692906,-5181.441594,-3404.947333,-76303.111601
12163.695483,0.000000,-6069.688724,-76456.330700
12163.698060,-6217.729913,-6069.688724,-78448.178995
12163.700637,-4145.153275,0.000000,-78448.178995
12163.703213,148.041188,-7254.018232,-78448.178995
12163.705790,-2664.741391,-2664.741391,-77375.645298
12163.708367,-5773.606348,-4737.318029,-78754.617194
12163.710944,592.164754,-6809.894666,-78448.178995
12163.713521,1332.370696,-2812.782580,-77835.302597
12163.716098,-5329.482782,-1480.411884,-77835.302597
12163.718675,2664.741391,-148.041188,-77222.426198
12163.721252,-148.041188,-6513.812290,-79367.493593
12163.723829,-8142.265362,-1480.411884,-79520.712692
12163.726406,-3256.906145,-9326.594869,-77988.521696
12163.728982,-10214.842000,-9326.594869,-76762.768900
12163.731559,-13175.665768,-9326.594869,-77682.083497
12163.734136,-3108.864956,-6513.812290,-75996.673402
12163.736713,7105.977043,-4145.153275,-75843.454302
12163.739290,-1184.329507,2368.659014,-77069.207099
12163.741867,-444.123565,-1184.329507,-78754.617194
12163.744444,8734.430116,4293.194464,-78141.740796
12163.747021,-592.164754,6957.935855,-77375.645298
12163.749598,6661.853478,6365.771101,-76762.768900
12163.752174,3997.112087,-1628.453072,-79367.493593
12163.754751,2960.823768,0.000000,-76149.892501
12163.757328,2960.823768,2812.782580,-77528.864398
12163.759905,5477.523971,1332.370696,-76456.330700
12163.762482,-444.123565,-740.205942,-79214.274493
12163.765058,4885.359217,4145.153275,-77528.864398
12163.767635,4145.153275,0.000000,-76915.987999
12163.770211,-296.082377,3701.029710,-75843.454302
12163.772787,-740.205942,1776.494261,-77069.207099
12163.775363,6661.853478,-1036.288319,-77375.645298
12163.777939,0.000000,740.205942,-77069.207099
12163.780516,296.082377,4145.153275,-78294.959896
12163.783092,7698.141797,4885.359217,-77375.645298
12163.785668,7698.141797,444.123565,-79367.493593
12163.788244,10214.842000,11843.295072,-76762.768900
12163.790821,8438.347739,1628.453072,-78141.740796
12163.793397,-2220.617826,4885.359217,-77375.645298
12163.795973,-10066.800811,-444.123565,-77682.083497
12163.798549,8586.388927,-1036.288319,-76609.549800
12163.801126,-4441.235652,-7846.182985,-79367.493593
12163.803702,-9622.677246,-2368.659014,-77375.645298
12163.806278,-2368.659014,-10955.047942,-80746.465489
12163.808854,-444.123565,-5921.647536,-77069.207099
12163.811431,-8290.306550,-3997.112087,-78141.740796
12163.814007,1184.329507,-4589.276840,-78754.617194
12163.816583,-4737.318029,-2960.823768,-76456.330700
12163.819159,-3997.112087,1628.453072,-75383.797003
12163.821736,-1924.535449,-4737.318029,-77835.302597
12163.824312,0.000000,-7105.977043,-79520.712692
12163.826888,-7698.141797,-148.041188,-76149.892501
12163.829464,1332.370696,-2220.617826,-78141.740796
12163.832041,3256.906145,-6217.729913,-78294.959896
12163.834617,-2220.617826,-1480.411884,-80593.246390
12163.837193,-1184.329507,-6513.812290,-79214.274493
12163.839769,592.164754,-5033.400406,-75383.797003
12163.842346,-16580.613101,-8734.430116,-76762.768900
12163.844922,-10807.006753,-7254.018232,-77375.645298
12163.847498,-4293.194464,-11547.212695,-77375.645298
12163.850074,-592.164754,-5329.482782,-76456.330700
12163.852651,6365.771101,148.041188,-78601.398095
12163.855227,-740.205942,-740.205942,-77835.302597
12163.857803,444.123565,6661.853478,-76303.111601
12163.860379,4441.235652,4589.276840,-77835.302597
12163.862955,6069.688724,5329.482782,-77222.426198
12163.865532,888.247130,1776.494261,-78448.178995
12163.868108,2960.823768,4589.276840,-78294.959896
12163.870684,5033.400406,-888.247130,-76915.987999
12163.873260,592.164754,-1036.288319,-76915.987999
12163.875836,1036.288319,2368.659014,-79827.150892
12163.878412,8734.430116,-2220.617826,-77528.864398
12163.880988,-2072.576638,2664.741391,-75996.673402
12163.883564,-2812.782580,6365.771101,-75077.358804
12163.886140,3108.864956,592.164754,-78907.836294
12163.888715,1776.494261,-2664.741391,-79061.055394
12163.891291,-2220.617826,5625.565159,-77528.864398
12163.893867,5329.482782,1036.288319,-77375.645298
12163.896443,5625.565159,2812.782580,-76762.768900
12163.899019,9474.636058,5625.565159,-77988.521696
12163.901595,10362.883188,6365.771101,-77682.083497
12163.904171,10510.924376,6069.688724,-78754.617194
12163.906747,-8438.347739,4145.153275,-77375.645298
12163.909323,-148.041188,3108.864956,-76915.987999
12163.911899,2220.617826,-7402.059420,-78601.398095
12163.914475,-9770.718434,-6957.935855,-77069.207099
12163.917051,-6365.771101,-9474.636058,-78448.178995
12163.919627,1628.453072,-11547.212695,-77835.302597
12163.922203,-6513.812290,-4737.318029,-75230.577904
12163.924779,-4441.235652,-2664.741391,-77069.207099
12163.927355,148.041188,-4145.153275,-77069.207099
12163.929931,-5477.523971,-2516.700203,-76915.987999
12163.932507,-9770.718434,1184.329507,-76915.987999
12163.935083,1332.370696,-8586.388927,-78754.617194
12163.937659,148.041188,-4885.359217,-77988.521696
12163.940235,-2960.823768,-4145.153275,-77835.302597
12163.942811,2516.700203,-3997.112087,-76609.549800
12163.945387,3552.988522,-6513.812290,-76915.987999
12163.947963,-4293.194464,-592.164754,-78907.836294
12163.950539,-1480.411884,-7105.977043,-78448.178995
12163.953115,-7254.018232,-7402.059420,-77682.083497
12163.955691,-18505.148550,-6957.935855,-78294.959896
12163.958267,-5181.441594,-9178.553681,-78294.959896
12163.960843,2516.700203,-11843.295072,-77375.645298
12163.963419,4145.153275,888.247130,-77069.207099
12163.965995,888.247130,-1036.288319,-78141.740796
12163.968571,4441.235652,2368.659014,-78141.740796
12163.971146,-1628.453072,6217.729913,-78448.178995
12163.973721,7698.141797,7105.977043,-77835.302597
12163.976296,1480.411884,2368.659014,-78754.617194
12163.978871,148.041188,1776.494261,-77222.426198
12163.981446,7402.059420,2960.823768,-78294.959896
12163.984021,3849.070898,-2072.576638,-76456.330700
12163.986596,444.123565,2368.659014,-77069.207099
12163.989171,5329.482782,-740.205942,-79673.931792
12163.991746,5773.606348,5033.400406,-77988.521696
12163.994321,-3849.070898,5329.482782,-77528.864398
12163.996896,1332.370696,1332.370696,-77069.207099
12163.999471,4145.153275,-5773.606348,-80899.684589
12164.002046,-1628.453072,3552.988522,-75230.577904
12164.004621,148.041188,2812.782580,-77528.864398
12164.007196,7698.141797,3256.906145,-76915.987999
12164.009770,5921.647536,1776.494261,-77069.207099
12164.012345,11103.089130,9918.759623,-78141.740796
12164.014920,8882.471304,6513.812290,-77528.864398
12164.017495,-2664.741391,5181.441594,-77682.083497
12164.020070,-4293.194464,-1332.370696,-78448.178995
12164.022645,5773.606348,-3997.112087,-77835.302597
12164.025220,-7254.018232,-8586.388927,-76456.330700
12164.027795,-6365.771101,-4589.276840,-76456.330700
12164.030370,296.082377,-14211.954086,-80440.027290
12164.032945,-2960.823768,-6217.729913,-76762.768900
12164.035520,-7402.059420,-1480.411884,-76762.768900
12164.038095,888.247130,-4737.318029,-78448.178995
12164.040670,-7105.977043,-3849.070898,-77835.302597
12164.043245,-2516.700203,1332.370696,-76762.768900
12164.045820,2812.782580,-4737.318029,-77835.302597
12164.048395,592.164754,-5921.647536,-78294.959896
12164.050970,-4589.276840,-3108.864956,-78754.617194
12164.053545,740.205942,-2960.823768,-77682.083497
12164.056120,296.082377,-2516.700203,-75537.016103
12164.058695,-4737.318029,-2664.741391,-80286.808190
12164.061270,-740.205942,-6069.688724,-79673.931792
12164.063845,-4441.235652,-6661.853478,-77835.302597
12164.066420,-15988.448347,-3701.029710,-76303.111601
12164.068995,-7402.059420,-7698.141797,-77835.302597
12164.071570,296.082377,-12139.377449,-77069.207099
12164.074149,2368.659014,296.082377,-76303.111601
12164.076723,296.082377,-1332.370696,-78141.740796
12164.079298,4737.318029,2516.700203,-78754.617194
12164.081872,-148.041188,6957.935855,-79520.712692
12164.084446,6957.935855,9474.636058,-77528.864398
12164.087020,5181.441594,2812.782580,-78601.398095
12164.089594,1332.370696,148.041188,-77835.302597
12164.092168,4589.276840,3256.906145,-78141.740796
12164.094743,4885.359217,-1628.453072,-77069.207099
12164.097317,-1036.288319,-148.041188,-77069.207099
12164.099891,2664.741391,1184.329507,-78907.836294
12164.102465,3849.070898,2664.741391,-77528.864398
12164.105039,148.041188,2368.659014,-76762.768900
12164.107613,-592.164754,2664.741391,-75843.454302
12164.110188,6217.729913,-148.041188,-77528.864398
12164.112762,-1036.288319,-1924.535449,-78907.836294
12164.115336,2368.659014,8882.471304,-75843.454302
12164.117910,4885.359217,-1184.329507,-77988.521696
12164.120484,10658.965565,3849.070898,-77069.207099
12164.123058,9178.553681,8142.265362,-79214.274493
12164.125633,10510.924376,4737.318029,-75843.454302
12164.128207,-3849.070898,4293.194464,-76303.111601
12164.130781,-4293.194464,2812.782580,-77682.083497
12164.133355,3997.112087,-3701.029710,-77835.302597
12164.135929,-2960.823768,-10955.047942,-77988.521696
12164.138503,-10362.883188,-5625.565159,-78448.178995
12164.141078,1036.288319,-11695.253884,-79673.931792
12164.143652,-1776.494261,-7402.059420,-78141.740796
12164.146226,-8734.430116,-2960.823768,-77988.521696
12164.148800,0.000000,-2960.823768,-77528.864398
12164.151374,-3256.906145,-4293.194464,-77988.521696
12164.153948,-5625.565159,3256.906145,-75077.358804
12164.156523,-592.164754,-2812.782580,-78141.740796
12164.159097,296.082377,-8586.388927,-78907.836294
12164.161671,-3849.070898,-2368.659014,-78754.617194
12164.164245,-444.123565,-2960.823768,-76915.987999
12164.166819,1332.370696,-3552.988522,-76456.330700
12164.169393,-3997.112087,-1924.535449,-78907.836294
12164.171968,-2220.617826,-7254.018232,-78754.617194
12164.174542,-5773.606348,-4737.318029,-77375.645298
12164.177115,-18357.107362,-5181.441594,-77835.302597
12164.179689,-6217.729913,-7994.224174,-77375.645298
12164.182263,2664.741391,-9622.677246,-77222.426198
12164.184836,3256.906145,-2368.659014,-76149.892501
12164.187410,-1332.370696,-444.123565,-77682.083497
12164.189984,8290.306550,5181.441594,-77222.426198
12164.192557,888.247130,6217.729913,-77988.521696
12164.195131,3701.029710,10807.006753,-77375.645298
12164.197705,5033.400406,3701.029710,-77222.426198
12164.200278,-296.082377,3849.070898,-77222.426198
12164.202852,1628.453072,2368.659014,-78448.178995
12164.205426,6513.812290,-3552.988522,-77682.083497
12164.207999,1776.494261,-740.205942,-77222.426198
12164.210573,296.082377,5033.400406,-78448.178995
12164.213146,3404.947333,1036.288319,-77835.302597
12164.215720,-2368.659014,-1184.329507,-75230.577904
12164.218294,-2664.741391,5181.441594,-75843.454302
12164.220867,5773.606348,-2072.576638,-79673.931792
12164.223441,-2072.576638,3256.906145,-77835.302597
12164.226015,-444.123565,6809.894666,-77835.302597
12164.228588,9326.594869,3404.947333,-78448.178995
12164.231162,14063.912898,1924.535449,-79061.055394
12164.233736,6217.729913,8882.471304,-77528.864398
12164.236309,4737.318029,4589.276840,-76762.768900
12164.238883,-2960.823768,888.247130,-77682.083497
12164.241457,-296.082377,4145.153275,-77375.645298
12164.244030,-3404.947333,-9918.759623,-79214.274493
12164.246604,-9178.553681,-10658.965565,-77835.302597
12164.249178,-7550.100608,-9622.677246,-78907.836294
12164.251751,2516.700203,-8290.306550,-79673.931792
12164.254325,-2368.659014,-6809.894666,-77988.521696
12164.256898,-6365.771101,1480.411884,-77528.864398
12164.259471,-1184.329507,-2368.659014,-78754.617194
12164.262044,-1480.411884,-444.123565,-77528.864398
12164.264617,-11547.212695,1480.411884,-77682.083497
12164.267189,4441.235652,-4885.359217,-78754.617194
12164.269762,2072.576638,-11991.336260,-79520.712692
12164.272335,-5921.647536,888.247130,-75843.454302
12164.274908,-1776.494261,-4885.359217,-75230.577904
12164.277480,444.123565,-4293.194464,-77375.645298
12164.280053,-5773.606348,-5181.441594,-78448.178995
12164.282626,-7698.141797,-3256.906145,-77988.521696
12164.285199,-11251.130318,-8438.347739,-77988.521696
12164.287771,-13471.748144,-4885.359217,-77069.207099
12164.290344,296.082377,-9030.512492,-79673.931792
12164.292917,6217.729913,-5329.482782,-76609.549800
12164.295490,-3404.947333,-2072.576638,-76149.892501
12164.298062,5033.400406,7105.977043,-76762.768900
12164.300635,5921.647536,6069.688724,-78601.398095
12164.303208,-1628.453072,7698.141797,-76456.330700
12164.305781,3108.864956,7994.224174,-77835.302597
12164.308353,6957.935855,0.000000,-78294.959896
12164.310926,1184.329507,1480.411884,-76303.111601
12164.313499,4441.235652,-1776.494261,-77988.521696
12164.316072,5329.482782,-3256.906145,-78754.617194
12164.318644,6809.894666,3701.029710,-77375.645298
12164.321217,-5329.482782,6809.894666,-75690.235202
12164.323790,2812.782580,444.123565,-76762.768900
12164.326363,3997.112087,1184.329507,-78141.740796
12164.328935,-4145.153275,3701.029710,-80286.808190
12164.331508,5477.523971,3404.947333,-78601.398095
12164.334081,6661.853478,2812.782580,-78294.959896
12164.336654,7254.018232,5329.482782,-78141.740796
12164.339226,10807.006753,7846.182985,-76762.768900
12164.341799,10214.842000,5181.441594,-76149.892501
12164.344372,-7402.059420,3849.070898,-76915.987999
12164.346945,-888.247130,1332.370696,-79367.493593
12164.349517,1332.370696,-2072.576638,-79061.055394
12164.352090,-10807.006753,-9622.677246,-77222.426198
12164.354663,-5033.400406,-9030.512492,-75843.454302
12164.357236,-2368.659014,-13471.748144,-77682.083497
12164.359808,-2664.741391,-5773.606348,-76456.330700
12164.362380,-5921.647536,-2220.617826,-77682.083497
12164.364952,444.123565,-2516.700203,-77375.645298
12164.367525,-7254.018232,-1628.453072,-78141.740796
12164.370097,-6661.853478,2072.576638,-76456.330700
12164.372669,444.123565,-6661.853478,-77222.426198
12164.375241,-1332.370696,-6513.812290,-76609.549800
12164.377813,-1332.370696,-3701.029710,-78601.398095
12164.380385,444.123565,-4145.153275,-76915.987999
12164.382957,2368.659014,-4589.276840,-77375.645298
12164.385529,-7402.059420,-3701.029710,-77988.521696
12164.388102,-4145.153275,-7550.100608,-78907.836294
12164.390674,-9918.759623,-8586.388927,-77375.645298
12164.393246,-14804.118840,-2220.617826,-77069.207099
12164.395818,148.041188,-10658.965565,-79673.931792
12164.398390,3849.070898,-8290.306550,-77835.302597
12164.400962,-1332.370696,-296.082377,-76303.111601
12164.403534,6513.812290,-1036.288319,-75996.673402
12164.406106,5921.647536,6957.935855,-79061.055394
12164.408678,-1924.535449,12435.459826,-77682.083497
12164.411251,3997.112087,7254.018232,-79214.274493
12164.413823,6069.688724,1184.329507,-78141.740796
12164.416395,1480.411884,2960.823768,-77528.864398
12164.418967,6217.729913,-1184.329507,-78601.398095
12164.421539,6217.729913,-2368.659014,-78141.740796
12164.424111,4145.153275,-1184.329507,-78601.398095
12164.426683,2960.823768,2960.823768,-78448.178995
12164.429255,592.164754,5625.565159,-77069.207099
12164.431827,740.205942,-1924.535449,-76762.768900
12164.434400,-3256.906145,5773.606348,-77528.864398
12164.436972,5921.647536,148.041188,-77528.864398
12164.439544,-740.205942,4441.235652,-76303.111601
12164.442116,8586.388927,3108.864956,-77528.864398
12164.444688,13915.871710,5921.647536,-77528.864398
12164.447260,5329.482782,6069.688724,-78907.836294
12164.449832,5921.647536,5921.647536,-76303.111601
12164.452404,1036.288319,-2368.659014,-77835.302597
12164.454977,-2220.617826,592.164754,-78141.740796
12164.457549,-10066.800811,-6217.729913,-78141.740796
12164.460121,-1776.494261,-9770.718434,-76303.111601
12164.462693,-7846.182985,-13471.748144,-76609.549800
12164.465264,296.082377,-6661.853478,-76149.892501
12164.467834,-2664.741391,-8142.265362,-78294.959896
12164.470405,-5625.565159,-1776.494261,-76609.549800
12164.472976,-8734.430116,1776.494261,-78448.178995
12164.475546,-2516.700203,0.000000,-78141.740796
12164.478117,-3108.864956,-5625.565159,-76762.768900
12164.480688,592.164754,-2664.741391,-76149.892501
12164.483259,1776.494261,-6957.935855,-79673.931792
12164.485829,444.123565,-6365.771101,-76915.987999
12164.488400,-5033.400406,-296.082377,-76303.111601
12164.490971,2220.617826,-8882.471304,-77375.645298
12164.493542,-6809.894666,-6809.894666,-77069.207099
12164.496112,-14804.118840,-4737.318029,-78907.836294
12164.498683,-8882.471304,-7105.977043,-77682.083497
12164.501254,-1628.453072,-10214.842000,-78907.836294
12164.503824,-2368.659014,-3552.988522,-79214.274493
12164.506395,5033.400406,-3701.029710,-77222.426198
12164.508966,4441.235652,-1332.370696,-77682.083497
12164.511537,3701.029710,10807.006753,-78448.178995
12164.514107,5329.482782,6365.771101,-79980.369991
12164.516678,3849.070898,7105.977043,-77528.864398
12164.519249,-148.041188,3552.988522,-77222.426198
12164.521820,5329.482782,3997.112087,-77222.426198
12164.524390,7698.141797,-2664.741391,-76609.549800
12164.526961,296.082377,-1036.288319,-77835.302597
12164.529532,1480.411884,1628.453072,-79520.712692
12164.532102,5773.606348,2516.700203,-78907.836294
12164.534673,-5033.400406,4293.194464,-78294.959896
12164.537244,4589.276840,3404.947333,-76609.549800
12164.539815,5625.565159,0.000000,-79520.712692
12164.542385,-2812.782580,888.247130,-76915.987999
12164.544956,7254.018232,7254.018232,-76609.549800
12164.547527,8438.347739,1332.370696,-78448.178995
12164.550098,7994.224174,6365.771101,-76303.111601
12164.552668,9918.759623,4885.359217,-78448.178995
12164.555239,6661.853478,6809.894666,-76456.330700
12164.557810,-7105.977043,740.205942,-78141.740796
12164.560380,2072.576638,3997.112087,-77988.521696
12164.562951,-6957.935855,-9474.636058,-79367.493593
12164.565522,-5921.647536,-9622.677246,-74924.139704
12164.568092,-6513.812290,-11547.212695,-76762.768900
12164.570661,3701.029710,-9474.636058,-78141.740796
12164.573231,-7402.059420,-8142.265362,-77988.521696
12164.575801,-1924.535449,2812.782580,-77835.302597
12164.578370,-4293.194464,-4885.359217,-78294.959896
12164.580940,-4441.235652,1480.411884,-76303.111601
12164.583510,-6069.688724,444.123565,-77069.207099
12164.586079,3849.070898,-6365.771101,-77375.645298
12164.588649,1036.288319,-5625.565159,-79520.712692
12164.591219,-6069.688724,-3997.112087,-78907.836294
12164.593789,1480.411884,-3997.112087,-77222.426198
12164.596358,-3997.112087,-8290.306550,-76762.768900
12164.598928,-9770.718434,-3849.070898,-78141.740796
12164.601498,-9474.636058,-9030.512492,-78294.959896
12164.604067,-9918.759623,-8438.347739,-75537.016103
12164.606637,-6809.894666,-3108.864956,-77375.645298
12164.609207,2664.741391,-4145.153275,-78141.740796
12164.611776,2368.659014,-5181.441594,-78141.740796
12164.614346,2220.617826,6513.812290,-76149.892501
12164.616916,10658.965565,6809.894666,-78601.398095
12164.619485,5921.647536,11991.336260,-79980.369991
12164.622055,-2812.782580,7994.224174,-77375.645298
12164.624625,7105.977043,4589.276840,-77528.864398
12164.627194,5625.565159,-740.205942,-77528.864398
12164.629764,444.123565,-3404.947333,-77222.426198
12164.632334,5329.482782,-1332.370696,-78907.836294
12164.634904,7105.977043,1480.411884,-77682.083497
12164.637473,-2516.700203,-1036.288319,-79061.055394
12164.640043,-4441.235652,6957.935855,-76456.330700
12164.642613,7254.018232,1776.494261,-75230.577904
12164.645182,-1924.535449,444.123565,-78448.178995
12164.647752,1480.411884,6513.812290,-77988.521696
12164.650322,6661.853478,3256.906145,-78907.836294
12164.652891,9622.677246,2072.576638,-76915.987999
12164.655461,9622.677246,9178.553681,-78294.959896
12164.658031,8290.306550,2812.782580,-75230.577904
12164.660600,-4441.235652,2664.741391,-75383.797003
12164.663170,1628.453072,3849.070898,-75537.016103
12164.665740,-3997.112087,-3404.947333,-78141.740796
12164.668309,-10955.047942,-9326.594869,-77528.864398
12164.670878,-7550.100608,-10955.047942,-77222.426198
12164.673447,592.164754,-15396.283594,-78754.617194
12164.676016,-3108.864956,-8586.388927,-77682.083497
12164.678585,-4885.359217,-1480.411884,-77069.207099
12164.681154,-2072.576638,-3108.864956,-78907.836294
12164.683722,-2516.700203,148.041188,-75843.454302
12164.686291,-10510.924376,4145.153275,-77375.645298
12164.688860,2072.576638,-10066.800811,-79061.055394
12164.691429,-148.041188,-5625.565159,-77069.207099
12164.693998,-2812.782580,-2664.741391,-77222.426198
12164.696567,-148.041188,-7402.059420,-79520.712692
12164.699135,592.164754,-4885.359217,-77682.083497
12164.701704,-11991.336260,-4293.194464,-77528.864398
12164.704273,-6217.729913,-7402.059420,-78907.836294
12164.706842,-7550.100608,-7994.224174,-77069.207099
12164.709411,-8586.388927,-3997.112087,-77682.083497
12164.711980,4293.194464,-7254.018232,-79367.493593
12164.714548,1332.370696,-5773.606348,-78907.836294
12164.717117,-740.205942,3108.864956,-77835.302597
12164.719686,11547.212695,6661.853478,-76915.987999
12164.722255,6217.729913,9622.677246,-78141.740796
12164.724824,-2220.617826,10510.924376,-76609.549800
12164.727392,4885.359217,4885.359217,-77069.207099
12164.729961,5921.647536,1628.453072,-77682.083497
12164.732530,0.000000,-592.164754,-78601.398095
12164.735099,2664.741391,888.247130,-77375.645298
12164.737668,8438.347739,-6069.688724,-77988.521696
12164.740237,-296.082377,5033.400406,-76762.768900
12164.742805,-740.205942,5921.647536,-78141.740796
12164.745374,3256.906145,2072.576638,-79061.055394
12164.747943,5477.523971,2812.782580,-79980.369991
12164.750512,-3256.906145,4589.276840,-79061.055394
12164.753081,12435.459826,3552.988522,-77682.083497
12164.755650,11547.212695,2812.782580,-79827.150892
12164.758218,4885.359217,8734.430116,-78754.617194
12164.760787,9178.553681,2516.700203,-78907.836294
12164.763356,-444.123565,2220.617826,-75690.235202
12164.765925,-740.205942,7846.182985,-76456.330700
12164.768494,-9178.553681,-7550.100608,-78601.398095
12164.771063,-1332.370696,-10214.842000,-78448.178995
12164.773631,-9770.718434,-10807.006753,-77375.645298
12164.776199,3997.112087,-10510.924376,-78294.959896
12164.778767,-592.164754,-10510.924376,-80133.589091
12164.781335,-6069.688724,2516.700203,-76609.549800
12164.783903,-1184.329507,-2072.576638,-79214.274493
12164.786472,-2516.700203,1924.535449,-77988.521696
12164.789040,-9178.553681,296.082377,-77835.302597
12164.791608,-1628.453072,-4145.153275,-76762.768900
12164.794176,2368.659014,-7994.224174,-78601.398095
12164.796744,-6069.688724,-7846.182985,-76456.330700
12164.799312,-3701.029710,-3108.864956,-76456.330700
12164.801881,-1036.288319,-6661.853478,-78601.398095
12164.804449,-10362.883188,-5329.482782,-76149.892501
12164.807017,-10362.883188,-7698.141797,-78448.178995
12164.809585,-6069.688724,-6513.812290,-76456.330700
12164.812153,-9326.594869,-3701.029710,-78294.959896
12164.814721,-740.205942,-888.247130,-77682.083497
12164.817290,3256.906145,-9326.594869,-78294.959896
12164.819858,4885.359217,5477.523971,-75843.454302
12164.822426,5181.441594,8290.306550,-76915.987999
12164.824994,7698.141797,10066.800811,-77222.426198
12164.827562,-3108.864956,7846.182985,-76149.892501
12164.830130,3256.906145,7698.141797,-77222.426198
12164.832699,6365.771101,-1924.535449,-78294.959896
12164.835267,5329.482782,-5921.647536,-78601.398095
12164.837835,-1776.494261,-296.082377,-79520.712692
12164.840403,5329.482782,1480.411884,-78141.740796
12164.842971,-148.041188,740.205942,-77528.864398
12164.845539,-1628.453072,7254.018232,-77528.864398
12164.848108,3997.112087,-2368.659014,-78141.740796
12164.850676,4885.359217,2368.659014,-78601.398095
12164.853244,-148.041188,6661.853478,-77222.426198
12164.855812,12435.459826,-148.041188,-77528.864398
12164.858380,14508.036463,5033.400406,-78601.398095
12164.860948,592.164754,8438.347739,-78754.617194
12164.863517,7550.100608,4145.153275,-77988.521696
12164.866085,3256.906145,2368.659014,-78601.398095
12164.868653,-4293.194464,5625.565159,-77682.083497
12164.871221,-11251.130318,-11103.089130,-80593.246390
12164.873789,-5329.482782,-12879.583391,-77375.645298
12164.876356,-8586.388927,-11103.089130,-77835.302597
12164.878923,4589.276840,-10510.924376,-76609.549800
12164.881490,-1628.453072,-8586.388927,-79061.055394
12164.884057,-3701.029710,2368.659014,-76456.330700
12164.886624,-6661.853478,888.247130,-77069.207099
12164.889191,740.205942,-592.164754,-77375.645298
12164.891758,-4885.359217,-1924.535449,-78448.178995
12164.894325,1332.370696,-3256.906145,-78448.178995
12164.896892,4885.359217,-9030.512492,-80133.589091
12164.899459,-8142.265362,-1924.535449,-78294.959896
12164.902026,-3404.947333,-1036.288319,-77375.645298
12164.904593,-5033.400406,-9770.718434,-76609.549800
12164.907160,-13471.748144,-5921.647536,-76303.111601
12164.909727,-12435.459826,-4885.359217,-75996.673402
12164.912294,-740.205942,-7698.141797,-78294.959896
12164.914861,-2960.823768,-6217.729913,-77682.083497
12164.917428,-444.123565,-3849.070898,-78294.959896
12164.919995,6217.729913,-2812.782580,-76915.987999
12164.922562,4441.235652,10510.924376,-75383.797003
12164.925129,-444.123565,16136.489536,-76303.111601
12164.927696,4885.359217,4885.359217,-79061.055394
12164.930263,888.247130,3997.112087,-76456.330700
12164.932830,2072.576638,6365.771101,-76303.111601
12164.935397,6809.894666,-4293.194464,-78141.740796
12164.937964,888.247130,-4441.235652,-77069.207099
12164.940531,3552.988522,-2220.617826,-77835.302597
12164.943098,2960.823768,1924.535449,-77222.426198
12164.945665,-2812.782580,2368.659014,-77069.207099
12164.948232,-1776.494261,5773.606348,-78907.836294
12164.950799,6217.729913,2072.576638,-79367.493593
12164.953366,5033.400406,4293.194464,-78448.178995
12164.955933,4737.318029,9030.512492,-77988.521696
12164.958500,12583.501014,296.082377,-79367.493593
12164.961067,10362.883188,4885.359217,-78907.836294
12164.963634,592.164754,6513.812290,-77375.645298
12164.966201,4293.194464,2812.782580,-75537.016103
12164.968768,-1036.288319,1924.535449,-76609.549800
12164.971335,-14952.160028,-5625.565159,-78907.836294
12164.973902,-6365.771101,-10362.883188,-79673.931792
12164.976469,-1628.453072,-14804.118840,-77988.521696
12164.979035,-3701.029710,-10362.883188,-77988.521696
12164.981602,740.205942,-7994.224174,-78907.836294
12164.984168,888.247130,-3997.112087,-78754.617194
12164.986734,-8586.388927,4145.153275,-77069.207099
12164.989301,-3108.864956,1776.494261,-76762.768900
12164.991867,-592.164754,888.247130,-77835.302597
12164.994433,-1184.329507,-9178.553681,-78294.959896
12164.996999,-4737.318029,-3997.112087,-76456.330700
12164.999566,1628.453072,-5921.647536,-76762.768900
12165.002132,-9622.677246,-5625.565159,-77988.521696
12165.004698,-4737.318029,-6069.688724,-77222.426198
12165.007265,-8290.306550,-5921.647536,-77375.645298
12165.009831,-15100.201217,-5625.565159,-77835.302597
12165.012397,-1924.535449,-5477.523971,-77682.083497
12165.014964,592.164754,-8882.471304,-78907.836294
12165.017530,-5033.400406,-6217.729913,-77222.426198
12165.020096,4885.359217,-296.082377,-77222.426198
12165.022662,9178.553681,5329.482782,-76915.987999
12165.025229,2516.700203,10807.006753,-75690.235202
12165.027795,2072.576638,12731.542202,-77835.302597
12165.030361,4145.153275,2220.617826,-78448.178995
12165.032928,740.205942,5625.565159,-76609.549800
12165.035494,2516.700203,-888.247130,-76915.987999
12165.038060,10807.006753,-6661.853478,-79980.369991
12165.040626,7846.182985,-3997.112087,-79061.055394
12165.043193,-6217.729913,6809.894666,-76456.330700
12165.045759,3256.906145,1628.453072,-77682.083497
12165.048325,1480.411884,-740.205942,-76915.987999
12165.050892,740.205942,9622.677246,-77528.864398
12165.053458,5773.606348,296.082377,-78448.178995
12165.056024,4589.276840,3404.947333,-78294.959896
12165.058591,11399.171507,7254.018232,-75843.454302
12165.061157,9474.636058,4589.276840,-78907.836294
12165.063723,4885.359217,3256.906145,-77528.864398
12165.066289,-1924.535449,5921.647536,-75843.454302
12165.068856,3108.864956,1332.370696,-78294.959896
12165.071422,-10066.800811,-9474.636058,-79367.493593
12165.073988,-11251.130318,-7550.100608,-77682.083497
12165.076555,0.000000,-18505.148550,-78601.398095
12165.079121,-888.247130,-10510.924376,-76609.549800
12165.081693,-6069.688724,-5773.606348,-77835.302597
12165.084259,-888.247130,1480.411884,-79061.055394
12165.086825,-3552.988522,-444.123565,-79214.274493
12165.089391,-9918.759623,4589.276840,-76762.768900
12165.091957,-1480.411884,-3997.112087,-77988.521696
12165.094522,3404.947333,-5033.400406,-77375.645298
12165.097088,-2368.659014,-4441.235652,-78448.178995
12165.099654,-3256.906145,-7698.141797,-77835.302597
12165.102220,1184.329507,-6661.853478,-76609.549800
12165.104786,-11695.253884,-6069.688724,-76915.987999
12165.107352,-12731.542202,-2960.823768,-77069.207099
12165.109918,-6809.894666,-10955.047942,-78448.178995
12165.112484,-7105.977043,-3849.070898,-75537.016103
12165.115049,2960.823768,-5773.606348,-79367.493593
12165.117615,-444.123565,-5033.400406,-78448.178995
12165.120181,4885.359217,3552.988522,-75537.016103
12165.122747,8142.265362,5625.565159,-77682.083497
12165.125313,7846.182985,13619.789333,-76456.330700
12165.127879,-1332.370696,6957.935855,-78141.740796
12165.130445,2812.782580,9030.512492,-77682.083497
12165.133010,4885.359217,-4441.235652,-78601.398095
12165.135576,1924.535449,-2664.741391,-76609.549800
12165.138142,3404.947333,-2072.576638,-78754.617194
12165.140708,7550.100608,-6661.853478,-79520.712692
12165.143274,-2664.741391,4293.194464,-75996.673402
12165.145840,-3256.906145,7550.100608,-78141.740796
12165.148406,4885.359217,1184.329507,-75690.235202
12165.150972,7994.224174,3997.112087,-78601.398095
12165.153537,3404.947333,5329.482782,-77375.645298
12165.156103,10362.883188,6069.688724,-77375.645298
12165.158669,11399.171507,2960.823768,-76456.330700
12165.161235,-1776.494261,4885.359217,-77682.083497
12165.163801,1776.494261,4145.153275,-76303.111601
12165.166367,5773.606348,2072.576638,-76609.549800
12165.168933,-11695.253884,-740.205942,-77835.302597
12165.171499,-8586.388927,-11991.336260,-79673.931792
12165.174064,-1924.535449,-17616.901420,-76915.987999
12165.176630,-4293.194464,-11695.253884,-76303.111601
12165.179196,-4441.235652,-7105.977043,-78448.178995
12165.181762,1924.535449,-4441.235652,-78448.178995
12165.184298,-7698.141797,-444.123565,-75843.454302
12165.186834,-7994.224174,5329.482782,-74311.263306
12165.189371,888.247130,-740.205942,-77069.207099
12165.191907,-592.164754,-8438.347739,-78754.617194
12165.194443,-1628.453072,-1924.535449,-78601.398095
12165.196979,1924.535449,-5921.647536,-77528.864398
12165.199516,-3997.112087,-8882.471304,-78601.398095
12165.202052,-10658.965565,-3256.906145,-77835.302597
12165.204588,-7846.182985,-9326.594869,-77069.207099
12165.207124,-8734.430116,-7846.182985,-77069.207099
12165.209660,-5625.565159,-888.247130,-76149.892501
12165.212197,5033.400406,-11103.089130,-80286.808190
12165.214733,-5477.523971,-5033.400406,-77375.645298
12165.217269,5921.647536,7698.141797,-77835.302597
12165.219805,10214.842000,4737.318029,-79367.493593
12165.222342,9474.636058,11399.171507,-78601.398095
12165.224878,-3849.070898,11251.130318,-77375.645298
12165.227414,5181.441594,5181.441594,-78754.617194
12165.229950,3404.947333,-1480.411884,-77069.207099
12165.232486,1332.370696,444.123565,-77222.426198
12165.235023,7402.059420,-5329.482782,-79827.150892
12165.237559,3108.864956,-1628.453072,-78907.836294
12165.240095,-3849.070898,1776.494261,-77069.207099
12165.242631,-2220.617826,5773.606348,-77835.302597
12165.245167,6069.688724,1924.535449,-75996.673402
12165.247704,-296.082377,3404.947333,-76762.768900
12165.250240,7402.059420,7105.977043,-77528.864398
12165.252776,13767.830521,3108.864956,-79673.931792
12165.255312,5033.400406,7994.224174,-77682.083497
12165.257849,6513.812290,1628.453072,-78601.398095
12165.260385,5329.482782,3256.906145,-76149.892501
12165.262921,-3108.864956,3849.070898,-74617.701505
12165.265457,-9622.677246,-3849.070898,-76915.987999
12165.267993,-7105.977043,-13471.748144,-77528.864398
12165.270530,-8142.265362,-13619.789333,-77069.207099
12165.273066,-1036.288319,-10807.006753,-77835.302597
12165.275602,592.164754,-8438.347739,-77988.521696
12165.278138,-3997.112087,-3997.112087,-77222.426198
12165.280675,-2664.741391,3701.029710,-78448.178995
12165.283211,-1184.329507,-2220.617826,-77222.426198
12165.285752,-3256.906145,-4145.153275,-76303.111601
12165.288294,-1184.329507,1332.370696,-77222.426198
12165.290835,888.247130,-10955.047942,-79673.931792
12165.293376,-2368.659014,-8438.347739,-78601.398095
12165.295918,-6217.729913,-444.123565,-76915.987999
12165.298459,-6217.729913,-11103.089130,-77222.426198
12165.301001,-14359.995275,-8438.347739,-76915.987999
12165.303542,-9918.759623,-5329.482782,-76303.111601
12165.306084,5477.523971,-6661.853478,-76762.768900
12165.308625,2220.617826,-4145.153275,-78907.836294
12165.311166,-5625.565159,-3404.947333,-78907.836294
12165.313708,12139.377449,2516.700203,-78448.178995
12165.316249,9474.636058,6217.729913,-78448.178995
12165.318791,-1036.288319,14211.954086,-77682.083497
12165.321332,6217.729913,7698.141797,-78601.398095
12165.323874,1480.411884,2812.782580,-76762.768900
12165.326415,592.164754,6069.688724,-75690.235202
12165.328956,4293.194464,-592.164754,-77375.645298
12165.331498,7105.977043,-6365.771101,-79673.931792
12165.334039,148.041188,1776.494261,-78754.617194
12165.336581,-2664.741391,3256.906145,-79061.055394
12165.339122,3552.988522,1628.453072,-77069.207099
12165.341664,1628.453072,5477.523971,-76456.330700
12165.344205,9030.512492,5921.647536,-78754.617194
12165.346746,9030.512492,3997.112087,-79214.274493
12165.349288,7698.141797,7402.059420,-78601.398095
12165.351829,5625.565159,7994.224174,-78448.178995
12165.354371,3552.988522,-1184.329507,-77835.302597
12165.356912,-1184.329507,6809.894666,-75690.235202
12165.359454,-1480.411884,2664.741391,-76303.111601
12165.361995,-6513.812290,-8882.471304,-78907.836294
12165.364536,-13619.789333,-8586.388927,-76762.768900
12165.367078,-1184.329507,-16284.530724,-77528.864398
12165.369619,1924.535449,-10362.883188,-77375.645298
12165.372161,-6661.853478,-5773.606348,-78294.959896
12165.374702,-4145.153275,2368.659014,-76456.330700
12165.377244,-1924.535449,-2664.741391,-78294.959896
12165.379785,-7254.018232,-1776.494261,-76456.330700
12165.382326,-2220.617826,2664.741391,-77069.207099
12165.384868,5625.565159,-5181.441594,-78294.959896
12165.387414,-5033.400406,-9918.759623,-78294.959896
12165.389960,-2960.823768,-2368.659014,-77988.521696
12165.392506,-8438.347739,-8586.388927,-76762.768900
12165.395052,-6661.853478,-8586.388927,-77069.207099
12165.397598,-16284.530724,-6809.894666,-79367.493593
12165.400144,2220.617826,-6809.894666,-76915.987999
12165.402690,-2220.617826,-6957.935855,-77835.302597
12165.405236,-3256.906145,-2516.700203,-78601.398095
12165.407782,5625.565159,-5329.482782,-77375.645298
12165.410329,10658.965565,5773.606348,-76456.330700
12165.412875,2812.782580,13619.789333,-77682.083497
12165.415421,7105.977043,10214.842000,-78294.959896
12165.417967,2072.576638,2220.617826,-79827.150892
12165.420513,1480.411884,6365.771101,-77069.207099
12165.423059,3849.070898,-1628.453072,-78294.959896
12165.425605,4885.359217,-2960.823768,-78294.959896
12165.428151,3404.947333,-1776.494261,-79367.493593
12165.430697,740.205942,-740.205942,-77069.207099
12165.433243,148.041188,3997.112087,-77528.864398
12165.435789,-3404.947333,2812.782580,-78907.836294
12165.438335,10214.842000,5033.400406,-78601.398095
12165.440881,9178.553681,5625.565159,-78294.959896
12165.443427,8882.471304,6365.771101,-75690.235202
12165.445973,11991.336260,6513.812290,-77835.302597
12165.448520,4441.235652,4145.153275,-77375.645298
12165.451066,-1184.329507,4293.194464,-78141.740796
12165.453612,3108.864956,5181.441594,-77682.083497
12165.456158,-4293.194464,-3552.988522,-78294.959896
12165.458704,-14804.118840,-8290.306550,-78907.836294
12165.461250,-3404.947333,-14804.118840,-78448.178995
12165.463796,3701.029710,-14952.160028,-76609.549800
12165.466342,-7254.018232,-7994.224174,-77222.426198
12165.468891,-888.247130,1184.329507,-78754.617194
12165.471440,-3552.988522,-3701.029710,-78141.740796
12165.473990,-9178.553681,1036.288319,-75383.797003
12165.476539,-3849.070898,0.000000,-76609.549800
12165.479088,3997.112087,-1628.453072,-77988.521696
12165.481637,2664.741391,-9030.512492,-78907.836294
12165.484187,-3997.112087,-5181.441594,-79061.055394
12165.486736,-1184.329507,-7994.224174,-77988.521696
12165.489285,-9474.636058,-8438.347739,-77682.083497
12165.491834,-15544.324782,-3256.906145,-78141.740796
12165.494383,-3108.864956,-11547.212695,-77988.521696
12165.496933,-1184.329507,-8290.306550,-77528.864398
12165.499482,-148.041188,740.205942,-78601.398095
12165.502031,740.205942,-7402.059420,-77682.083497
12165.504580,5329.482782,3849.070898,-74770.920605
12165.507129,2664.741391,11399.171507,-78754.617194
12165.509679,6069.688724,12879.583391,-77835.302597
12165.512228,2368.659014,5477.523971,-78907.836294
12165.514777,740.205942,7254.018232,-76456.330700
12165.517326,6069.688724,-2812.782580,-77988.521696
12165.519876,5329.482782,-4589.276840,-79061.055394
12165.522425,-1776.494261,296.082377,-79520.712692
12165.524974,5181.441594,-2664.741391,-77682.083497
12165.527523,1036.288319,1184.329507,-76762.768900
12165.530072,-296.082377,2812.782580,-74617.701505
12165.532622,1628.453072,4737.318029,-76915.987999
12165.535171,10955.047942,6365.771101,-78754.617194
12165.537720,5181.441594,6513.812290,-77682.083497
12165.540269,14952.160028,6069.688724,-77375.645298
12165.542819,6069.688724,3552.988522,-77988.521696
12165.545368,-2220.617826,5773.606348,-79214.274493
12165.547917,4885.359217,3552.988522,-78448.178995
12165.550466,-3256.906145,-6809.894666,-77222.426198
12165.553015,-11547.212695,-11695.253884,-77069.207099
12165.555565,-6513.812290,-12435.459826,-78141.740796
12165.558114,2664.741391,-16136.489536,-77835.302597
12165.560663,-7254.018232,-8882.471304,-76915.987999
12165.563212,-1924.535449,444.123565,-78141.740796
12165.565762,-444.123565,-2220.617826,-77682.083497
12165.568311,-1332.370696,-1480.411884,-75230.577904
12165.570863,-4589.276840,2516.700203,-76762.768900
12165.573415,3849.070898,-2812.782580,-77835.302597
12165.575968,888.247130,-8438.347739,-78907.836294
12165.578520,-6957.935855,-3701.029710,-78448.178995
12165.581073,-7254.018232,-6661.853478,-77069.207099
12165.583625,-4293.194464,-10214.842000,-77988.521696
12165.586177,-17912.983796,-6809.894666,-78448.178995
12165.588730,1480.411884,-4885.359217,-77682.083497
12165.591282,740.205942,-6809.894666,-78294.959896
12165.593834,-2516.700203,-3108.864956,-77988.521696
12165.596387,4737.318029,740.205942,-77069.207099
12165.598939,10066.800811,7994.224174,-76915.987999
12165.601491,3997.112087,10658.965565,-77069.207099
12165.604044,1628.453072,13027.624579,-79061.055394
12165.606596,4589.276840,3256.906145,-79214.274493
12165.609149,-888.247130,3701.029710,-76762.768900
12165.611701,4589.276840,-1036.288319,-76609.549800
12165.614253,10214.842000,-6217.729913,-77682.083497
12165.616806,1924.535449,-296.082377,-78448.178995
12165.619358,-7698.141797,6513.812290,-75843.454302
12165.621910,4145.153275,1184.329507,-77375.645298
12165.624463,0.000000,148.041188,-78754.617194
12165.627015,5477.523971,10807.006753,-77682.083497
12165.629567,8438.347739,2072.576638,-77682.083497
12165.632120,9474.636058,6069.688724,-76915.987999
12165.634672,6365.771101,6513.812290,-76915.987999
12165.637224,5033.400406,1924.535449,-77069.207099
12165.639777,-3552.988522,2960.823768,-76609.549800
12165.642329,-5033.400406,6365.771101,-76762.768900
12165.644882,-10807.006753,-9622.677246,-78294.959896
12165.647434,-7846.182985,-13323.706956,-77682.083497
12165.649986,-7846.182985,-15100.201217,-78754.617194
12165.652539,7254.018232,-11399.171507,-77069.207099
12165.655091,-2960.823768,-6809.894666,-77528.864398
12165.657643,-4589.276840,4441.235652,-78294.959896
12165.660196,-1036.288319,-4145.153275,-79520.712692
12165.662748,-10066.800811,-296.082377,-75690.235202
12165.665300,-3552.988522,2664.741391,-77375.645298
12165.667853,3256.906145,-5477.523971,-81512.560987
12165.670405,1184.329507,-5477.523971,-77988.521696
12165.672931,-8586.388927,-6365.771101,-76915.987999
12165.675457,-3552.988522,-8882.471304,-75996.673402
12165.677983,-10214.842000,-9918.759623,-78754.617194
12165.680509,-14656.077652,-4145.153275,-78294.959896
12165.683035,3552.988522,-6661.853478,-78907.836294
12165.685561,2516.700203,-5625.565159,-78601.398095
12165.688087,-4441.235652,-4885.359217,-77222.426198
12165.690612,7698.141797,5477.523971,-76303.111601
12165.693138,11843.295072,5033.400406,-77988.521696
12165.695664,1924.535449,15988.448347,-76762.768900
12165.698190,592.164754,9030.512492,-78448.178995
12165.700716,8142.265362,4441.235652,-78601.398095
12165.703242,-1184.329507,1184.329507,-76149.892501
12165.705768,4885.359217,-1036.288319,-78601.398095
12165.708294,9770.718434,-4293.194464,-79827.150892
12165.710820,-1184.329507,-1776.494261,-78141.740796
12165.713346,-1332.370696,6069.688724,-75690.235202
12165.715872,4441.235652,1332.370696,-75843.454302
12165.718397,888.247130,5033.400406,-77222.426198
12165.720923,4737.318029,7994.224174,-78754.617194
12165.723449,15544.324782,4737.318029,-76303.111601
12165.725975,7994.224174,4737.318029,-77069.207099
12165.728501,3701.029710,6365.771101,-77835.302597
12165.731027,4737.318029,888.247130,-78754.617194
12165.733553,1184.329507,2220.617826,-77375.645298
12165.736079,-12583.501014,-2072.576638,-77222.426198
12165.738605,-5033.400406,-13915.871710,-78141.740796
12165.741131,-7698.141797,-17320.819043,-76915.987999
12165.743657,-1628.453072,-9622.677246,-76762.768900
12165.746183,-296.082377,-9622.677246,-77528.864398
12165.748708,-5181.441594,-2072.576638,-78141.740796
12165.751234,-5477.523971,3997.112087,-78448.178995
12165.753760,-2516.700203,2072.576638,-75843.454302
12165.756286,-444.123565,-3404.947333,-77988.521696
12165.758812,-3997.112087,-2072.576638,-78141.740796
12165.761338,2516.700203,-5477.523971,-78754.617194
12165.763864,-2368.659014,-8882.471304,-77069.207099
12165.766390,-10362.883188,-5625.565159,-78294.959896
12165.768916,-8882.471304,-10510.924376,-77682.083497
12165.771442,-11251.130318,-9030.512492,-77682.083497
12165.773975,-5033.400406,-4885.359217,-78141.740796
12165.776509,1184.329507,-3849.070898,-77835.302597
12165.779043,3701.029710,-7698.141797,-77682.083497
12165.781576,4737.318029,4145.153275,-76303.111601
