#time,accel_x,accel_y,accel_z
11370.779601,8290.306550,592.164754,-80440.027290
11370.782161,0.000000,-1924.535449,-76303.111601
11370.784722,-6661.853478,-592.164754,-75843.454302
11370.787283,2368.659014,-1776.494261,-77988.521696
11370.789844,-1036.288319,-444.123565,-75383.797003
11370.792405,-3701.029710,-1184.329507,-77835.302597
11370.794966,-1332.370696,-296.082377,-79061.055394
11370.797527,5477.523971,-2960.823768,-79367.493593
11370.800088,-3108.864956,3108.864956,-76762.768900
11370.802649,-4885.359217,0.000000,-77988.521696
11370.805209,7254.018232,-1332.370696,-77835.302597
11370.807770,-4885.359217,888.247130,-76149.892501
11370.810331,2072.576638,3997.112087,-80133.589091
11370.812892,6661.853478,3256.906145,-78141.740796
11370.815453,-148.041188,2960.823768,-76303.111601
11370.818014,10362.883188,3701.029710,-78294.959896
11370.820575,17172.777854,1036.288319,-78907.836294
11370.823136,5773.606348,1480.411884,-76149.892501
11370.825696,-16432.571912,0.000000,-77682.083497
11370.828257,-7254.018232,-3552.988522,-78601.398095
11370.830818,-8586.388927,-4293.194464,-77069.207099
11370.833379,-5181.441594,-1628.453072,-77069.207099
11370.835940,9770.718434,-5773.606348,-80440.027290
11370.838501,3256.906145,-7402.059420,-77682.083497
11370.841062,-10807.006753,-3552.988522,-75843.454302
11370.843623,-11251.130318,-740.205942,-77069.207099
11370.846184,-2516.700203,-3701.029710,-78448.178995
11370.848744,-1776.494261,-1776.494261,-77682.083497
11370.851305,7254.018232,-444.123565,-79827.150892
11370.853868,5329.482782,-6513.812290,-77528.864398
11370.856430,-9474.636058,-4293.194464,-76609.549800
11370.858992,-3997.112087,-5329.482782,-79367.493593
11370.861554,1332.370696,-2368.659014,-80746.465489
11370.864117,2220.617826,-296.082377,-78448.178995
11370.866679,-3256.906145,-4441.235652,-77835.302597
11370.869241,3404.947333,444.123565,-77222.426198
11370.871803,-1036.288319,-2368.659014,-77682.083497
11370.874366,-8882.471304,-592.164754,-77528.864398
11370.876928,5921.647536,-5181.441594,-80440.027290
11370.879490,296.082377,-4441.235652,-77375.645298
11370.882052,-8438.347739,-6809.894666,-78448.178995
11370.884615,-6365.771101,-3997.112087,-77835.302597
11370.887177,-3404.947333,-5773.606348,-78141.740796
11370.889739,-6809.894666,-1036.288319,-77988.521696
11370.892301,2072.576638,-148.041188,-79214.274493
11370.894864,2960.823768,-4145.153275,-76456.330700
11370.897426,-6957.935855,-1776.494261,-76303.111601
11370.899988,-3997.112087,-3108.864956,-79673.931792
11370.902550,-1628.453072,-7402.059420,-77528.864398
11370.905113,-7994.224174,-4737.318029,-75230.577904
11370.907675,-1628.453072,-4441.235652,-77682.083497
11370.910237,9474.636058,-3404.947333,-78754.617194
11370.912799,1332.370696,2664.741391,-76915.987999
11370.915362,-3404.947333,888.247130,-78601.398095
11370.917924,6217.729913,5181.441594,-78294.959896
11370.920486,592.164754,1036.288319,-78601.398095
11370.923048,-6217.729913,3256.906145,-76456.330700
11370.925611,2664.741391,-4145.153275,-79367.493593
11370.928173,6217.729913,-1628.453072,-78294.959896
11370.930735,888.247130,-740.205942,-77682.083497
11370.933297,3256.906145,1924.535449,-78448.178995
11370.935859,4293.194464,-592.164754,-77222.426198
11370.938422,-3849.070898,3997.112087,-75537.016103
11370.940984,3849.070898,4145.153275,-78141.740796
11370.943546,5625.565159,1036.288319,-77682.083497
11370.946108,-1184.329507,-1628.453072,-76762.768900
11370.948671,-1924.535449,-740.205942,-78448.178995
11370.951233,5329.482782,-2960.823768,-78754.617194
11370.953795,1036.288319,-1184.329507,-76456.330700
11370.956358,888.247130,-1184.329507,-76609.549800
11370.958921,4737.318029,3701.029710,-78601.398095
11370.961483,5477.523971,2812.782580,-77069.207099
11370.964046,-5033.400406,-1776.494261,-76609.549800
11370.966609,-1776.494261,-888.247130,-77682.083497
11370.969171,7846.182985,-5329.482782,-76456.330700
11370.971734,-4441.235652,1924.535449,-77222.426198
11370.974297,4293.194464,2960.823768,-79827.150892
11370.976860,5921.647536,-888.247130,-80440.027290
11370.979422,3108.864956,4737.318029,-78294.959896
11370.981985,888.247130,4737.318029,-76762.768900
11370.984548,15544.324782,2368.659014,-77988.521696
11370.987110,2220.617826,296.082377,-78601.398095
11370.989673,1480.411884,592.164754,-78294.959896
11370.992236,6809.894666,-1036.288319,-78294.959896
11370.994799,296.082377,1036.288319,-75996.673402
11370.997361,-4885.359217,-296.082377,-76915.987999
11370.999924,4885.359217,3108.864956,-77988.521696
11371.002487,6661.853478,2664.741391,-76609.549800
11371.005049,-1036.288319,2960.823768,-75843.454302
11371.007612,-148.041188,2664.741391,-79980.369991
11371.010175,1036.288319,296.082377,-76762.768900
11371.012738,-4145.153275,-2220.617826,-75690.235202
11371.015300,-5181.441594,-4885.359217,-78754.617194
11371.017863,1628.453072,-6661.853478,-77222.426198
11371.020426,1332.370696,-4737.318029,-76762.768900
11371.022988,-2220.617826,148.041188,-75690.235202
11371.025551,1480.411884,-4885.359217,-78141.740796
11371.028114,-3701.029710,296.082377,-77375.645298
11371.030676,-6217.729913,-1036.288319,-78294.959896
11371.033239,3256.906145,-1480.411884,-78907.836294
11371.035802,-2812.782580,-3256.906145,-77069.207099
11371.038365,-3997.112087,-3849.070898,-77988.521696
11371.040927,2664.741391,-6809.894666,-79367.493593
11371.043490,-444.123565,-5181.441594,-76456.330700
11371.046053,-6513.812290,-2812.782580,-76609.549800
11371.048615,3997.112087,-1036.288319,-80286.808190
11371.051178,1036.288319,-148.041188,-76456.330700
11371.053741,-7105.977043,-148.041188,-74464.482406
11371.056304,-1480.411884,-296.082377,-79520.712692
11371.058867,-592.164754,-6957.935855,-76915.987999
11371.061430,-3108.864956,-3108.864956,-76456.330700
11371.063993,1184.329507,-888.247130,-79520.712692
11371.066557,1776.494261,-1332.370696,-79673.931792
11371.069120,-592.164754,-1924.535449,-78141.740796
11371.071683,-6217.729913,888.247130,-77528.864398
11371.074246,2072.576638,-6217.729913,-77528.864398
11371.076810,-1332.370696,-3997.112087,-77682.083497
11371.079373,-9770.718434,-5181.441594,-80133.589091
11371.081936,1628.453072,-3404.947333,-78448.178995
11371.084499,-6809.894666,-3997.112087,-74924.139704
11371.087063,-6217.729913,-1776.494261,-76456.330700
11371.089626,-1036.288319,-2368.659014,-78448.178995
11371.092189,1184.329507,-2516.700203,-75996.673402
11371.094752,-6513.812290,-1184.329507,-75996.673402
11371.097315,-1924.535449,-1776.494261,-78141.740796
11371.099879,-3108.864956,-9178.553681,-77988.521696
11371.102442,-7402.059420,-3701.029710,-74924.139704
11371.105005,7254.018232,-3256.906145,-78907.836294
11371.107568,888.247130,-444.123565,-77835.302597
11371.110132,-2516.700203,444.123565,-76915.987999
11371.112695,0.000000,2368.659014,-78448.178995
11371.115258,3997.112087,4885.359217,-78294.959896
11371.117821,-6365.771101,2368.659014,-76456.330700
11371.120385,-1924.535449,148.041188,-78601.398095
11371.122948,11399.171507,-148.041188,-80286.808190
11371.125511,3108.864956,1036.288319,-77375.645298
11371.128074,-2664.741391,148.041188,-78601.398095
11371.130638,5773.606348,-1332.370696,-78754.617194
11371.133201,-740.205942,1628.453072,-76762.768900
11371.135764,-3849.070898,5477.523971,-75996.673402
11371.138327,6661.853478,2516.700203,-78907.836294
11371.140891,6513.812290,444.123565,-77988.521696
11371.143454,-3256.906145,1924.535449,-75690.235202
11371.146017,2664.741391,592.164754,-77222.426198
11371.148580,-2072.576638,-888.247130,-77222.426198
11371.151144,-3404.947333,-888.247130,-77375.645298
11371.153707,5329.482782,1776.494261,-78294.959896
11371.156270,3404.947333,296.082377,-78448.178995
11371.158833,-888.247130,444.123565,-77069.207099
11371.161396,-5181.441594,-296.082377,-80133.589091
11371.163959,3997.112087,-1036.288319,-78448.178995
11371.166522,1924.535449,1924.535449,-76762.768900
11371.169085,-4737.318029,3404.947333,-79061.055394
11371.171648,10066.800811,1332.370696,-80899.684589
11371.174211,296.082377,2812.782580,-75996.673402
11371.176774,4441.235652,4885.359217,-76915.987999
11371.179337,9918.759623,2072.576638,-79980.369991
11371.181900,6513.812290,444.123565,-76915.987999
11371.184463,-2812.782580,888.247130,-77222.426198
11371.187026,3404.947333,2072.576638,-77682.083497
11371.189589,-148.041188,-3849.070898,-77835.302597
11371.192153,-2812.782580,2072.576638,-76303.111601
11371.194716,6809.894666,2664.741391,-78448.178995
11371.197279,4441.235652,3404.947333,-76456.330700
11371.199842,-6069.688724,148.041188,-77222.426198
11371.202405,-2072.576638,3404.947333,-77835.302597
11371.204968,-1628.453072,-2072.576638,-78448.178995
11371.207531,-5329.482782,-5625.565159,-77682.083497
11371.210094,-4737.318029,-4293.194464,-79061.055394
11371.212657,9770.718434,-6513.812290,-79673.931792
11371.215220,-2368.659014,-3849.070898,-77069.207099
11371.217783,-7994.224174,-2664.741391,-77988.521696
11371.220346,1480.411884,-2960.823768,-79367.493593
11371.222909,-4145.153275,1924.535449,-77835.302597
11371.225472,-7550.100608,592.164754,-76609.549800
11371.228035,1332.370696,-4441.235652,-78448.178995
11371.230598,-1332.370696,-6957.935855,-77835.302597
11371.233161,-8290.306550,-5181.441594,-74924.139704
11371.235724,-2220.617826,-4885.359217,-78448.178995
11371.238287,2368.659014,-5181.441594,-77069.207099
11371.240850,-3256.906145,-1480.411884,-78141.740796
11371.243413,-1628.453072,2072.576638,-77988.521696
11371.245976,1184.329507,-592.164754,-77682.083497
11371.248539,-3108.864956,-1480.411884,-77988.521696
11371.251102,-3552.988522,-2516.700203,-80133.589091
11371.253665,2812.782580,-2516.700203,-77528.864398
11371.256228,148.041188,-1480.411884,-77069.207099
11371.258791,-6365.771101,-2368.659014,-78294.959896
11371.261354,4885.359217,-2072.576638,-78754.617194
11371.263917,-3997.112087,-3997.112087,-76303.111601
11371.266480,-5329.482782,-3997.112087,-78141.740796
11371.269043,888.247130,-4293.194464,-79520.712692
11371.271606,-4589.276840,-5773.606348,-77222.426198
11371.274170,-10510.924376,-5033.400406,-76456.330700
11371.276733,-1628.453072,-2960.823768,-76915.987999
11371.279296,0.000000,-3552.988522,-77069.207099
11371.281859,-5181.441594,-2368.659014,-78141.740796
11371.284422,-740.205942,-1184.329507,-78448.178995
11371.286985,-3701.029710,-4145.153275,-76456.330700
11371.289549,-8142.265362,-3849.070898,-75230.577904
11371.292112,-592.164754,-3256.906145,-78754.617194
11371.294675,7402.059420,-1036.288319,-78448.178995
11371.297238,444.123565,-2960.823768,-77835.302597
11371.299801,3404.947333,1184.329507,-78907.836294
11371.302364,7846.182985,2960.823768,-79214.274493
11371.304928,-6661.853478,3997.112087,-76456.330700
11371.307491,-6069.688724,2072.576638,-78907.836294
11371.310054,8438.347739,-592.164754,-79214.274493
11371.312617,4737.318029,2664.741391,-77988.521696
11371.315180,-740.205942,-1628.453072,-76456.330700
11371.317743,3404.947333,444.123565,-76762.768900
11371.320306,740.205942,-1036.288319,-77988.521696
11371.322870,-5033.400406,3552.988522,-75843.454302
11371.325433,5329.482782,2664.741391,-78294.959896
11371.327996,7402.059420,1036.288319,-77682.083497
11371.330559,-1184.329507,2368.659014,-76456.330700
11371.333122,2812.782580,1776.494261,-77682.083497
11371.335685,1480.411884,-2368.659014,-75996.673402
11371.338249,-3404.947333,2960.823768,-77222.426198
11371.340812,-1184.329507,-2220.617826,-80899.684589
11371.343375,7402.059420,740.205942,-77835.302597
11371.345938,0.000000,-296.082377,-77835.302597
11371.348501,-7550.100608,3404.947333,-78448.178995
11371.351064,6365.771101,-4441.235652,-78601.398095
11371.353627,-444.123565,3701.029710,-77222.426198
11371.356191,-2072.576638,2812.782580,-78907.836294
11371.358754,8882.471304,2960.823768,-81665.780087
11371.361317,6809.894666,3997.112087,-77988.521696
11371.363880,148.041188,1332.370696,-75996.673402
11371.366444,3404.947333,3404.947333,-79367.493593
11371.369007,6217.729913,592.164754,-80440.027290
11371.371571,592.164754,0.000000,-76915.987999
11371.374134,-4145.153275,592.164754,-78294.959896
11371.376697,6661.853478,-1480.411884,-78907.836294
11371.379261,2516.700203,444.123565,-79061.055394
11371.381824,296.082377,3404.947333,-78907.836294
11371.384388,4145.153275,296.082377,-77682.083497
11371.386951,2812.782580,1628.453072,-76303.111601
11371.389515,-11695.253884,-1184.329507,-76149.892501
11371.392078,-1480.411884,-4145.153275,-78294.959896
11371.394642,740.205942,-6809.894666,-77069.207099
11371.397205,-444.123565,-5033.400406,-76915.987999
11371.399769,592.164754,-5033.400406,-78448.178995
11371.402332,-1924.535449,-5625.565159,-77222.426198
11371.404896,-9770.718434,-444.123565,-76149.892501
11371.407459,-5329.482782,592.164754,-79980.369991
11371.410023,2220.617826,-888.247130,-80593.246390
11371.412586,-3108.864956,-3552.988522,-77682.083497
11371.415150,-4145.153275,-5033.400406,-78754.617194
11371.417713,148.041188,-8882.471304,-78754.617194
11371.420277,-3701.029710,-5773.606348,-77069.207099
11371.422840,-4293.194464,-5033.400406,-78907.836294
11371.425404,7254.018232,-3701.029710,-80133.589091
11371.427967,-2516.700203,-592.164754,-77528.864398
11371.430530,-8142.265362,-2072.576638,-76303.111601
11371.433094,1184.329507,-1036.288319,-78294.959896
11371.435657,2960.823768,-3108.864956,-75843.454302
11371.438221,-4885.359217,-2516.700203,-75843.454302
11371.440784,1628.453072,-1036.288319,-79061.055394
11371.443348,-296.082377,-2516.700203,-77222.426198
11371.445911,-4737.318029,-6365.771101,-77069.207099
11371.448475,444.123565,-3256.906145,-77069.207099
11371.451038,-4885.359217,-5033.400406,-76303.111601
11371.453602,-9178.553681,-3997.112087,-75996.673402
11371.456165,-7994.224174,-4145.153275,-79214.274493
11371.458729,148.041188,-7254.018232,-78907.836294
11371.461292,-2960.823768,-2368.659014,-77069.207099
11371.463856,-2368.659014,-740.205942,-78601.398095
11371.466419,2368.659014,-2368.659014,-77835.302597
11371.468957,-7550.100608,-4293.194464,-78141.740796
11371.471491,-4885.359217,-1776.494261,-78907.836294
11371.474026,7402.059420,-5329.482782,-79520.712692
11371.476560,0.000000,-2664.741391,-77682.083497
11371.479095,1036.288319,-1184.329507,-76303.111601
11371.481629,6957.935855,1628.453072,-78294.959896
11371.484164,740.205942,2664.741391,-76456.330700
11371.486698,-10066.800811,3404.947333,-76915.987999
11371.489233,2368.659014,2516.700203,-79061.055394
11371.491767,6957.935855,-1184.329507,-77988.521696
11371.494302,1480.411884,3108.864956,-76456.330700
11371.496836,6069.688724,-1776.494261,-78601.398095
11371.499371,8290.306550,-2516.700203,-79827.150892
11371.501905,-3552.988522,2664.741391,-76149.892501
11371.504439,-2368.659014,2368.659014,-79673.931792
11371.506974,7402.059420,1480.411884,-79367.493593
11371.509508,3997.112087,2220.617826,-77988.521696
11371.512043,1480.411884,3108.864956,-78907.836294
11371.514577,7254.018232,-1924.535449,-78448.178995
11371.517112,-1332.370696,-592.164754,-77835.302597
11371.519646,-6069.688724,-1628.453072,-79520.712692
11371.522181,4293.194464,6957.935855,-77682.083497
11371.524715,4293.194464,-4589.276840,-77682.083497
11371.527250,-7105.977043,3701.029710,-74311.263306
11371.529784,1332.370696,-2960.823768,-79980.369991
11371.532319,1184.329507,1184.329507,-76609.549800
11371.534853,-3404.947333,2072.576638,-75843.454302
11371.537388,7550.100608,3997.112087,-79214.274493
11371.539922,6513.812290,1036.288319,-78294.959896
11371.542457,2664.741391,1924.535449,-75843.454302
11371.544991,2368.659014,2664.741391,-78754.617194
11371.547526,5921.647536,1036.288319,-79520.712692
11371.550060,-1332.370696,148.041188,-78754.617194
11371.552595,-1332.370696,148.041188,-78601.398095
11371.555129,9178.553681,-148.041188,-77835.302597
11371.557663,1628.453072,1924.535449,-77375.645298
11371.560198,-148.041188,1036.288319,-80746.465489
11371.562732,2960.823768,296.082377,-78907.836294
11371.565267,-1480.411884,4441.235652,-76303.111601
11371.567801,-11991.336260,-1628.453072,-76609.549800
11371.570341,296.082377,-5477.523971,-79367.493593
11371.572881,3256.906145,-7698.141797,-77069.207099
11371.575421,-3552.988522,-5181.441594,-76456.330700
11371.577961,-740.205942,-4885.359217,-78294.959896
11371.580501,-3997.112087,-6365.771101,-77069.207099
11371.583041,-7550.100608,148.041188,-76456.330700
11371.585581,-1036.288319,3552.988522,-76915.987999
11371.588121,4441.235652,-1924.535449,-79520.712692
11371.590661,-4145.153275,-4589.276840,-78448.178995
11371.593201,-5181.441594,-5329.482782,-77375.645298
11371.595741,-1480.411884,-7846.182985,-79520.712692
11371.598281,-5329.482782,-3997.112087,-76609.549800
11371.600821,-6809.894666,-3552.988522,-80593.246390
11371.603361,6069.688724,-3997.112087,-79214.274493
11371.605901,-3552.988522,444.123565,-76609.549800
11371.608441,-3849.070898,1480.411884,-78448.178995
11371.610981,-1184.329507,-2368.659014,-78141.740796
11371.613521,2812.782580,-1776.494261,-78141.740796
11371.616061,-5033.400406,-2960.823768,-77682.083497
11371.618601,0.000000,-888.247130,-77988.521696
11371.621141,740.205942,-8882.471304,-78448.178995
11371.623681,-8290.306550,-2516.700203,-74004.825107
11371.626221,-2072.576638,-5329.482782,-79367.493593
11371.628761,-5625.565159,-2812.782580,-77069.207099
11371.631301,-10658.965565,-6809.894666,-78141.740796
11371.633841,-6217.729913,-4885.359217,-79214.274493
11371.636381,1924.535449,-4293.194464,-79367.493593
11371.638921,-3256.906145,-2664.741391,-77528.864398
11371.641461,-6069.688724,-888.247130,-78601.398095
11371.644001,1332.370696,-5625.565159,-80133.589091
11371.646541,-3256.906145,148.041188,-76762.768900
11371.649081,0.000000,-2220.617826,-80593.246390
11371.651626,6365.771101,-2368.659014,-79520.712692
11371.654170,3701.029710,148.041188,-75537.016103
11371.656715,-1184.329507,2664.741391,-76303.111601
11371.659260,296.082377,3108.864956,-79520.712692
11371.661804,-2960.823768,1036.288319,-77835.302597
11371.664349,-2516.700203,1628.453072,-77222.426198
11371.666893,8438.347739,3849.070898,-77528.864398
11371.669438,7254.018232,-1184.329507,-77988.521696
11371.671982,-1924.535449,-1628.453072,-76609.549800
11371.674527,2516.700203,444.123565,-78448.178995
11371.677072,5033.400406,1776.494261,-78294.959896
11371.679616,-2960.823768,444.123565,-77988.521696
11371.682161,3256.906145,4441.235652,-80286.808190
11371.684705,8734.430116,1036.288319,-79980.369991
11371.687250,4145.153275,888.247130,-76915.987999
11371.689795,-1776.494261,2368.659014,-78294.959896
11371.692339,1628.453072,-2368.659014,-79520.712692
11371.694884,-888.247130,-740.205942,-78448.178995
11371.697428,-1628.453072,1776.494261,-77069.207099
11371.699973,888.247130,2516.700203,-76149.892501
11371.702517,3701.029710,-2516.700203,-76456.330700
11371.705062,-6069.688724,2516.700203,-75843.454302
11371.707607,5625.565159,1628.453072,-79214.274493
11371.710151,4589.276840,5921.647536,-77222.426198
11371.712696,148.041188,740.205942,-74924.139704
11371.715240,11991.336260,3552.988522,-78907.836294
11371.717785,5625.565159,296.082377,-76762.768900
11371.720330,-1480.411884,3108.864956,-76456.330700
11371.722874,-3997.112087,1184.329507,-80133.589091
11371.725419,6217.729913,-3701.029710,-80593.246390
11371.727963,3849.070898,2664.741391,-76149.892501
11371.730508,-296.082377,2516.700203,-78448.178995
11371.733053,4737.318029,148.041188,-79673.931792
11371.735597,-2220.617826,3552.988522,-77682.083497
11371.738142,-4293.194464,2664.741391,-79214.274493
11371.740686,-4145.153275,-7402.059420,-79980.369991
11371.743231,-3849.070898,-4293.194464,-76762.768900
11371.745775,740.205942,-6069.688724,-76303.111601
11371.748320,2516.700203,-3849.070898,-77222.426198
11371.750865,-4293.194464,-5625.565159,-76762.768900
11371.753414,-10066.800811,-4145.153275,-78141.740796
11371.755963,-3256.906145,1628.453072,-78601.398095
11371.758512,-1036.288319,0.000000,-76762.768900
11371.761061,-4885.359217,0.000000,-76456.330700
11371.763610,1776.494261,-4589.276840,-78448.178995
11371.766159,-1776.494261,-7254.018232,-77069.207099
11371.768708,-6069.688724,-5329.482782,-75996.673402
11371.771257,-6365.771101,-4589.276840,-79520.712692
11371.773806,4737.318029,-2072.576638,-80593.246390
11371.776355,-2072.576638,-3849.070898,-77835.302597
11371.778904,-5921.647536,5477.523971,-76303.111601
11371.781453,2812.782580,3849.070898,-76456.330700
11371.784002,148.041188,-9474.636058,-79214.274493
11371.786551,-2664.741391,740.205942,-77528.864398
11371.789100,1480.411884,-3108.864956,-78448.178995
11371.791649,2072.576638,-5773.606348,-79214.274493
11371.794197,-3701.029710,-3701.029710,-77528.864398
11371.796746,-9030.512492,-3849.070898,-76915.987999
11371.799295,-2960.823768,-5477.523971,-81512.560987
11371.801844,-9622.677246,-3108.864956,-76762.768900
11371.804393,-3404.947333,-5033.400406,-79827.150892
11371.806942,4293.194464,-2960.823768,-79061.055394
11371.809491,-5033.400406,-888.247130,-76303.111601
11371.812040,-9030.512492,-3256.906145,-79520.712692
11371.814589,2368.659014,-2220.617826,-78907.836294
11371.817138,2516.700203,-3701.029710,-78294.959896
11371.819687,-4589.276840,148.041188,-77069.207099
11371.822236,6661.853478,-2220.617826,-78754.617194
11371.824785,6513.812290,-592.164754,-75996.673402
11371.827334,-5773.606348,4737.318029,-77069.207099
11371.829883,-1924.535449,2812.782580,-79673.931792
11371.832432,-1480.411884,0.000000,-77988.521696
11371.834981,-592.164754,5033.400406,-77069.207099
11371.837530,5773.606348,1036.288319,-79214.274493
11371.840079,10510.924376,-1924.535449,-79061.055394
11371.842628,-1332.370696,296.082377,-77835.302597
11371.845177,-4589.276840,296.082377,-79367.493593
11371.847726,3552.988522,2664.741391,-79214.274493
11371.850275,296.082377,2516.700203,-76915.987999
11371.852824,4441.235652,3849.070898,-79673.931792
11371.855376,7550.100608,-740.205942,-80440.027290
11371.857928,296.082377,444.123565,-75843.454302
11371.860480,-3404.947333,148.041188,-76303.111601
11371.863032,592.164754,-1184.329507,-80286.808190
11371.865584,2516.700203,1628.453072,-77682.083497
11371.868136,-740.205942,-2368.659014,-77222.426198
11371.870688,-148.041188,4441.235652,-77375.645298
11371.873240,3701.029710,-1036.288319,-78141.740796
11371.875792,-6069.688724,2516.700203,-77682.083497
11371.878344,8142.265362,4589.276840,-77835.302597
11371.880896,12287.418637,1332.370696,-79061.055394
11371.883448,7550.100608,3552.988522,-77682.083497
11371.886000,1184.329507,296.082377,-79214.274493
11371.888552,7846.182985,-1036.288319,-79061.055394
11371.891104,-4885.359217,592.164754,-77069.207099
11371.893656,2220.617826,148.041188,-80899.684589
11371.896208,8438.347739,1776.494261,-79827.150892
11371.898760,1924.535449,1924.535449,-76915.987999
11371.901312,-4589.276840,888.247130,-77988.521696
11371.903864,2220.617826,4737.318029,-78448.178995
11371.906416,-7994.224174,-6513.812290,-77375.645298
11371.908968,-6661.853478,-2812.782580,-75230.577904
11371.911520,5329.482782,-7994.224174,-80133.589091
11371.914072,6809.894666,-6513.812290,-76456.330700
11371.916624,-7994.224174,-7550.100608,-76762.768900
11371.919175,-3552.988522,-2516.700203,-77069.207099
11371.921727,-6069.688724,-2516.700203,-76762.768900
11371.924279,-8142.265362,2368.659014,-76915.987999
11371.926831,-4589.276840,-1332.370696,-79980.369991
11371.929383,6217.729913,-3849.070898,-78448.178995
11371.931935,-4589.276840,-7698.141797,-77682.083497
11371.934487,-5625.565159,-4737.318029,-78754.617194
11371.937039,-1628.453072,-6957.935855,-78448.178995
11371.939591,-1628.453072,-2516.700203,-77835.302597
11371.942143,-2812.782580,740.205942,-79827.150892
11371.944695,6661.853478,-2664.741391,-79214.274493
11371.947247,-3552.988522,444.123565,-75383.797003
11371.949799,-3701.029710,-1332.370696,-76456.330700
11371.952351,296.082377,-4145.153275,-79520.712692
11371.954903,2812.782580,-3701.029710,-78448.178995
11371.957458,-7105.977043,-5181.441594,-76456.330700
11371.960012,296.082377,-5181.441594,-77835.302597
11371.962567,-5181.441594,-5625.565159,-76456.330700
11371.965121,-13027.624579,-5033.400406,-76762.768900
11371.967676,-3256.906145,-2812.782580,-78601.398095
11371.970230,-888.247130,-3256.906145,-77069.207099
11371.972785,-3849.070898,-1776.494261,-77988.521696
11371.975339,-5921.647536,-3552.988522,-78907.836294
11371.977894,-296.082377,-5033.400406,-77528.864398
11371.980449,-4589.276840,-2664.741391,-76762.768900
11371.983003,2072.576638,-1776.494261,-80593.246390
11371.985558,3701.029710,-2516.700203,-81052.903688
11371.988112,4737.318029,-740.205942,-76609.549800
11371.990667,2960.823768,3404.947333,-78448.178995
11371.993221,3997.112087,3108.864956,-78601.398095
11371.995776,-4737.318029,1332.370696,-75996.673402
11371.998330,-5329.482782,4145.153275,-76762.768900
11372.000885,10510.924376,-296.082377,-79367.493593
11372.003439,9918.759623,148.041188,-76609.549800
11372.005994,-888.247130,-2812.782580,-76915.987999
11372.008549,6217.729913,1036.288319,-78448.178995
11372.011103,-2220.617826,296.082377,-76762.768900
11372.013658,-4589.276840,2812.782580,-75996.673402
11372.016212,3701.029710,3552.988522,-79520.712692
11372.018767,12287.418637,3108.864956,-78294.959896
11372.021321,1924.535449,-1184.329507,-77682.083497
11372.023876,-3701.029710,888.247130,-77375.645298
11372.026430,3108.864956,-1924.535449,-78448.178995
11372.028985,-1036.288319,0.000000,-79980.369991
11372.031540,-3997.112087,0.000000,-80899.684589
11372.034094,7254.018232,-296.082377,-77069.207099
11372.036649,-1776.494261,1628.453072,-76303.111601
11372.039203,-5477.523971,1776.494261,-76456.330700
11372.041758,8734.430116,3997.112087,-77682.083497
11372.044312,8142.265362,3849.070898,-76609.549800
11372.046867,3701.029710,4737.318029,-78141.740796
11372.049421,7994.224174,-740.205942,-79061.055394
11372.051976,3849.070898,-1036.288319,-75996.673402
11372.054531,-5477.523971,-444.123565,-74617.701505
11372.057085,4737.318029,888.247130,-79061.055394
11372.059642,5921.647536,-444.123565,-78907.836294
11372.062199,-148.041188,3701.029710,-77222.426198
11372.064756,-4589.276840,1924.535449,-78907.836294
11372.067312,7254.018232,0.000000,-78601.398095
11372.069869,-12731.542202,-3256.906145,-76456.330700
11372.072426,-2516.700203,-4589.276840,-78601.398095
11372.074983,4885.359217,-6957.935855,-78294.959896
11372.077540,2960.823768,-5773.606348,-77375.645298
11372.080096,-4589.276840,-7698.141797,-78754.617194
11372.082653,-444.123565,-4293.194464,-76762.768900
11372.085210,-5033.400406,-3701.029710,-76915.987999
11372.087767,-7105.977043,3108.864956,-75843.454302
11372.090324,-1184.329507,-1480.411884,-78601.398095
11372.092881,3849.070898,-5625.565159,-75843.454302
11372.095437,-6069.688724,-5329.482782,-76609.549800
11372.097994,-740.205942,-7994.224174,-78601.398095
11372.100551,-7402.059420,-7846.182985,-77835.302597
11372.103108,-5773.606348,-2664.741391,-75383.797003
11372.105665,3404.947333,2220.617826,-78294.959896
11372.108222,4589.276840,-2664.741391,-77375.645298
11372.110778,-1480.411884,-740.205942,-74464.482406
11372.113335,-3701.029710,-2960.823768,-79061.055394
11372.115892,4441.235652,-6069.688724,-81052.903688
11372.118449,-3108.864956,-3108.864956,-77375.645298
11372.121006,-3256.906145,-4589.276840,-78294.959896
11372.123562,1332.370696,-9474.636058,-78754.617194
11372.126119,-11399.171507,-4441.235652,-75690.235202
11372.128676,-6809.894666,-2220.617826,-79061.055394
11372.131233,296.082377,-148.041188,-77835.302597
11372.133790,148.041188,-3108.864956,-78294.959896
11372.136347,-6513.812290,-2664.741391,-76456.330700
11372.138903,-1776.494261,-5033.400406,-76762.768900
11372.141460,888.247130,-4589.276840,-74311.263306
11372.144017,-3404.947333,-2960.823768,-77988.521696
11372.146574,3256.906145,-1776.494261,-79827.150892
11372.149131,7846.182985,-2664.741391,-77222.426198
11372.151688,1924.535449,6069.688724,-77222.426198
11372.154244,-2368.659014,8438.347739,-77528.864398
11372.156801,-1036.288319,-592.164754,-79367.493593
11372.159358,-3701.029710,3997.112087,-77222.426198
11372.161917,4589.276840,1628.453072,-79520.712692
11372.164476,13619.789333,1480.411884,-78907.836294
11372.167035,1332.370696,-2664.741391,-77069.207099
11372.169594,3256.906145,-888.247130,-77528.864398
11372.172153,1776.494261,-1480.411884,-77375.645298
11372.174713,-3552.988522,5033.400406,-75996.673402
11372.177272,-2664.741391,4441.235652,-77069.207099
11372.179831,13767.830521,2072.576638,-79520.712692
11372.182390,6661.853478,888.247130,-76762.768900
11372.184949,-6217.729913,-1776.494261,-75230.577904
11372.187508,3108.864956,148.041188,-77528.864398
11372.190067,3849.070898,-3404.947333,-76456.330700
11372.192626,-6809.894666,6069.688724,-77222.426198
11372.195185,3997.112087,-2368.659014,-78907.836294
11372.197744,4885.359217,0.000000,-77222.426198
11372.200303,4441.235652,4145.153275,-76609.549800
11372.202862,1332.370696,5033.400406,-77528.864398
11372.205422,14508.036463,6661.853478,-78294.959896
11372.207981,2812.782580,148.041188,-77375.645298
11372.210540,-148.041188,2368.659014,-76609.549800
11372.213099,888.247130,-3404.947333,-77988.521696
11372.215658,3552.988522,2072.576638,-75690.235202
11372.218217,-888.247130,1628.453072,-78141.740796
11372.220776,5477.523971,4145.153275,-79367.493593
11372.223335,3849.070898,-2220.617826,-78448.178995
11372.225894,-1628.453072,5033.400406,-74004.825107
11372.228453,-9178.553681,-3552.988522,-79673.931792
11372.231012,2812.782580,-6661.853478,-77835.302597
11372.233571,-4885.359217,-4885.359217,-76762.768900
11372.236131,4441.235652,-5329.482782,-79367.493593
11372.238690,148.041188,-7550.100608,-77988.521696
11372.241249,-8290.306550,-3404.947333,-75690.235202
11372.243808,-9178.553681,-148.041188,-75383.797003
11372.246367,-888.247130,3701.029710,-78754.617194
11372.248926,-740.205942,-2072.576638,-78448.178995
11372.251485,-3849.070898,-148.041188,-76456.330700
11372.254044,-888.247130,-7698.141797,-78141.740796
11372.256603,-3404.947333,-6217.729913,-75996.673402
11372.259162,-9918.759623,-7994.224174,-75996.673402
11372.261721,4589.276840,-2812.782580,-78601.398095
11372.264282,-444.123565,1184.329507,-78754.617194
11372.266842,-740.205942,3701.029710,-74617.701505
11372.269402,-5921.647536,-740.205942,-78907.836294
11372.271963,5329.482782,-2960.823768,-77069.207099
11372.274523,-8290.306550,-6513.812290,-77835.302597
11372.277083,1184.329507,-2368.659014,-79061.055394
11372.279644,-1036.288319,-8438.347739,-79673.931792
11372.282204,-9030.512492,-5033.400406,-75690.235202
11372.284764,-9770.718434,-7550.100608,-79061.055394
11372.287324,444.123565,-3701.029710,-79061.055394
11372.289885,-2516.700203,-296.082377,-76456.330700
11372.292445,-4885.359217,888.247130,-78754.617194
11372.295005,-1628.453072,-3404.947333,-79520.712692
11372.297566,-1332.370696,-5477.523971,-76149.892501
11372.300126,-3849.070898,-2664.741391,-76915.987999
11372.302686,3997.112087,-2812.782580,-78601.398095
11372.305247,3256.906145,-5181.441594,-78601.398095
11372.307807,2368.659014,5773.606348,-77682.083497
11372.310367,7846.182985,3552.988522,-78907.836294
11372.312928,-3552.988522,2516.700203,-77528.864398
11372.315488,-5477.523971,3256.906145,-75996.673402
11372.318048,4441.235652,2812.782580,-78601.398095
11372.320609,11695.253884,296.082377,-78294.959896
11372.323169,592.164754,-740.205942,-78294.959896
11372.325729,3849.070898,-2368.659014,-79214.274493
11372.328290,1332.370696,-1924.535449,-76915.987999
11372.330850,-7105.977043,2812.782580,-76303.111601
11372.333410,3997.112087,3108.864956,-78601.398095
11372.335970,9178.553681,4589.276840,-79827.150892
11372.338531,7105.977043,1924.535449,-77222.426198
11372.341091,-4885.359217,740.205942,-77222.426198
11372.343651,1776.494261,-148.041188,-79214.274493
11372.346212,3256.906145,-2960.823768,-77375.645298
11372.348772,-6661.853478,2516.700203,-77528.864398
11372.351332,9178.553681,888.247130,-79673.931792
11372.353893,-1628.453072,2812.782580,-76149.892501
11372.356453,-1184.329507,5181.441594,-77528.864398
11372.359013,6957.935855,2664.741391,-80746.465489
11372.361574,12583.501014,1628.453072,-76609.549800
11372.364134,444.123565,2368.659014,-75996.673402
11372.366696,6217.729913,1924.535449,-78754.617194
11372.369257,1480.411884,-4293.194464,-78294.959896
11372.371819,-1628.453072,740.205942,-74924.139704
11372.374381,5181.441594,1924.535449,-78141.740796
11372.376942,3997.112087,-592.164754,-78754.617194
11372.379504,1628.453072,2664.741391,-76303.111601
11372.382066,-5033.400406,3256.906145,-77682.083497
11372.384627,-2664.741391,-5921.647536,-78907.836294
11372.387189,-5477.523971,-5477.523971,-75996.673402
11372.389751,-1924.535449,-7402.059420,-77988.521696
11372.392312,7105.977043,-6809.894666,-78907.836294
11372.394874,-2072.576638,-6661.853478,-78141.740796
11372.397436,-7846.182985,-3108.864956,-78294.959896
11372.399998,-1924.535449,-740.205942,-77528.864398
11372.402559,0.000000,-444.123565,-76609.549800
11372.405121,-7550.100608,-2516.700203,-77528.864398
11372.407683,1924.535449,-3256.906145,-78601.398095
11372.410244,2220.617826,-8882.471304,-77682.083497
11372.412806,-10955.047942,-6069.688724,-74770.920605
11372.415368,-4145.153275,-9030.512492,-78601.398095
11372.417929,2812.782580,296.082377,-76609.549800
11372.420491,-4885.359217,-2664.741391,-77375.645298
11372.423053,-444.123565,3108.864956,-78448.178995
11372.425614,3256.906145,0.000000,-78601.398095
11372.428176,-3404.947333,-4737.318029,-78448.178995
11372.430738,-4145.153275,-4293.194464,-78448.178995
11372.433299,3552.988522,-6513.812290,-78907.836294
11372.435861,-6217.729913,-6661.853478,-77682.083497
11372.438423,-13323.706956,-5181.441594,-78754.617194
11372.440985,1184.329507,-4885.359217,-78141.740796
11372.443546,-5625.565159,-444.123565,-76303.111601
11372.446108,-4885.359217,296.082377,-78294.959896
11372.448670,-740.205942,-2220.617826,-79214.274493
11372.451231,888.247130,-4589.276840,-75843.454302
11372.453793,-2812.782580,-4737.318029,-75843.454302
11372.456355,-740.205942,-592.164754,-77528.864398
11372.458916,4885.359217,-6809.894666,-77682.083497
11372.461478,2220.617826,3404.947333,-75383.797003
11372.464040,5477.523971,6809.894666,-77988.521696
11372.466601,-2960.823768,1480.411884,-77222.426198
11372.469165,-2220.617826,3404.947333,-77682.083497
11372.471727,1332.370696,2368.659014,-79520.712692
11372.474289,14211.954086,3404.947333,-77682.083497
11372.476852,4293.194464,-1776.494261,-77835.302597
11372.479414,1184.329507,-1036.288319,-79061.055394
11372.481976,3256.906145,-888.247130,-77375.645298
11372.484538,-1480.411884,2664.741391,-75230.577904
11372.487100,-1776.494261,3108.864956,-78601.398095
11372.489662,9030.512492,5329.482782,-79827.150892
11372.492224,7550.100608,444.123565,-76915.987999
11372.494786,-2664.741391,2072.576638,-74311.263306
11372.497348,-2664.741391,-740.205942,-78601.398095
11372.499910,4293.194464,-3552.988522,-77222.426198
11372.502472,-4293.194464,592.164754,-77069.207099
11372.505034,4885.359217,4441.235652,-77835.302597
11372.507597,2220.617826,3552.988522,-76303.111601
11372.510159,-1332.370696,2368.659014,-76915.987999
11372.512721,8734.430116,5625.565159,-77988.521696
11372.515283,13915.871710,3108.864956,-78294.959896
11372.517845,3404.947333,1924.535449,-76762.768900
11372.520407,-740.205942,-1332.370696,-79673.931792
11372.522969,5773.606348,-1332.370696,-77835.302597
11372.525531,-444.123565,888.247130,-75996.673402
11372.528093,-3404.947333,3849.070898,-79061.055394
11372.530655,4737.318029,1332.370696,-80746.465489
11372.533217,1036.288319,4885.359217,-77835.302597
11372.535780,-9326.594869,-1332.370696,-78448.178995
11372.538342,-1628.453072,-6513.812290,-78448.178995
11372.540904,-296.082377,-7105.977043,-76456.330700
11372.543466,-2368.659014,-6217.729913,-76915.987999
11372.546028,1628.453072,-6217.729913,-78907.836294
11372.548590,-2220.617826,-6069.688724,-77222.426198
11372.551152,-9030.512492,-1628.453072,-76303.111601
11372.553714,-3849.070898,2220.617826,-77069.207099
11372.556276,-3849.070898,-2072.576638,-77222.426198
11372.558838,-2516.700203,-1184.329507,-76456.330700
11372.561400,-5625.565159,-3701.029710,-79520.712692
11372.563963,5773.606348,-10066.800811,-78448.178995
11372.566525,-6069.688724,-7698.141797,-77988.521696
11372.569087,-7105.977043,-148.041188,-79061.055394
11372.571650,2220.617826,-1628.453072,-79980.369991
11372.574212,2072.576638,1036.288319,-76609.549800
11372.576775,-4145.153275,-1924.535449,-79061.055394
11372.579338,4737.318029,-4293.194464,-78601.398095
11372.581901,-5921.647536,-2960.823768,-77222.426198
11372.584464,-10658.965565,-5625.565159,-76149.892501
11372.587027,-2220.617826,-7550.100608,-79520.712692
11372.589590,-8438.347739,-8142.265362,-77375.645298
11372.592152,-8586.388927,-3404.947333,-75843.454302
11372.594715,-1480.411884,-444.123565,-79061.055394
11372.597278,-1924.535449,-2664.741391,-76609.549800
11372.599841,-7105.977043,-2220.617826,-77222.426198
11372.602404,2960.823768,-2072.576638,-78448.178995
11372.604967,5181.441594,-5477.523971,-76609.549800
11372.607530,-3701.029710,-4885.359217,-77222.426198
11372.610092,3256.906145,296.082377,-78907.836294
11372.612655,10807.006753,-1184.329507,-81206.122788
11372.615218,-1036.288319,4293.194464,-76303.111601
11372.617781,-7698.141797,2072.576638,-77069.207099
11372.620344,5773.606348,3256.906145,-77682.083497
11372.622907,6661.853478,1332.370696,-77069.207099
11372.625470,3701.029710,2812.782580,-76456.330700
11372.628033,6957.935855,-3997.112087,-79520.712692
11372.630595,4293.194464,-148.041188,-78754.617194
11372.633158,-3404.947333,-296.082377,-75537.016103
11372.635721,0.000000,5477.523971,-77988.521696
11372.638284,9178.553681,-444.123565,-80899.684589
11372.640847,4737.318029,2072.576638,-77988.521696
11372.643410,-1628.453072,3701.029710,-78141.740796
11372.645973,5477.523971,-4589.276840,-77222.426198
11372.648535,-3849.070898,-1332.370696,-76762.768900
11372.651098,1924.535449,1036.288319,-79827.150892
11372.653661,6957.935855,0.000000,-79520.712692
11372.656224,3404.947333,5329.482782,-74617.701505
11372.658787,-1036.288319,3701.029710,-77528.864398
11372.661350,9178.553681,5033.400406,-78907.836294
11372.663913,10066.800811,2812.782580,-77682.083497
11372.666475,0.000000,2220.617826,-77222.426198
11372.669038,6365.771101,1776.494261,-78294.959896
11372.671601,2960.823768,-3552.988522,-78141.740796
11372.674164,-2220.617826,1184.329507,-75230.577904
11372.676727,-1480.411884,3108.864956,-77988.521696
11372.679290,6365.771101,444.123565,-78448.178995
11372.681853,-888.247130,2812.782580,-76609.549800
11372.684416,-7550.100608,-444.123565,-77835.302597
11372.686979,444.123565,-7846.182985,-77988.521696
11372.689542,-3849.070898,-7698.141797,-76762.768900
11372.692105,888.247130,-4737.318029,-77988.521696
11372.694668,2220.617826,-7698.141797,-77988.521696
11372.697231,-7254.018232,-6217.729913,-76915.987999
11372.699794,-7698.141797,-1332.370696,-77375.645298
11372.702356,-4145.153275,1036.288319,-77835.302597
11372.704919,-148.041188,-2072.576638,-76609.549800
11372.707482,-5329.482782,-1184.329507,-77069.207099
11372.710045,2664.741391,-5181.441594,-78754.617194
11372.712608,-1924.535449,-9030.512492,-76456.330700
11372.715171,-9030.512492,-3404.947333,-75230.577904
11372.717734,1776.494261,-3108.864956,-80286.808190
11372.720297,-1924.535449,-5477.523971,-80133.589091
11372.722860,-2664.741391,3849.070898,-74924.139704
11372.725423,-2220.617826,-2664.741391,-78141.740796
11372.727986,1628.453072,-5329.482782,-77682.083497
11372.730549,-7105.977043,-6661.853478,-77222.426198
11372.733112,-5773.606348,-4441.235652,-79214.274493
11372.735675,-3256.906145,-9030.512492,-78294.959896
11372.738238,-10214.842000,-4737.318029,-75230.577904
11372.740801,-5773.606348,-3256.906145,-79367.493593
11372.743364,148.041188,-3552.988522,-77682.083497
11372.745926,-1628.453072,-888.247130,-75843.454302
11372.748489,-3552.988522,-1480.411884,-78754.617194
11372.751052,6809.894666,-2368.659014,-79673.931792
11372.753615,-4145.153275,-2812.782580,-77682.083497
11372.756178,-1036.288319,-3108.864956,-76762.768900
11372.758741,8734.430116,1628.453072,-79673.931792
11372.761304,3108.864956,5181.441594,-76915.987999
11372.763867,-6957.935855,3552.988522,-78448.178995
11372.766430,2072.576638,3997.112087,-78907.836294
11372.768993,7846.182985,1036.288319,-79367.493593
11372.771556,2960.823768,3997.112087,-77069.207099
11372.774119,4145.153275,148.041188,-79980.369991
11372.776682,8142.265362,-2960.823768,-78601.398095
11372.779246,-5625.565159,296.082377,-77528.864398
11372.781809,1480.411884,1184.329507,-79061.055394
11372.784372,7698.141797,-296.082377,-78601.398095
11372.786936,-592.164754,4145.153275,-78448.178995
11372.789499,-3849.070898,1628.453072,-77375.645298
11372.792063,2812.782580,-296.082377,-78601.398095
11372.794626,-740.205942,-2220.617826,-75843.454302
11372.797189,-2664.741391,1036.288319,-77375.645298
11372.799753,4589.276840,1184.329507,-80133.589091
11372.802316,4885.359217,1628.453072,-76762.768900
11372.804879,-1332.370696,6957.935855,-76609.549800
11372.807443,10510.924376,3404.947333,-78907.836294
11372.810006,6809.894666,3997.112087,-77375.645298
11372.812570,1184.329507,2220.617826,-75996.673402
11372.815133,3701.029710,2220.617826,-78907.836294
11372.817696,7402.059420,-3256.906145,-79827.150892
11372.820260,-5921.647536,-444.123565,-75843.454302
11372.822823,-740.205942,148.041188,-77375.645298
11372.825387,6661.853478,888.247130,-77375.645298
11372.827950,-3997.112087,1776.494261,-77375.645298
11372.830513,-3701.029710,-3997.112087,-79520.712692
11372.833077,-1776.494261,-5773.606348,-75690.235202
11372.835640,296.082377,-6069.688724,-77528.864398
11372.838203,-6365.771101,-6365.771101,-78754.617194
11372.840767,2960.823768,-6957.935855,-78141.740796
11372.843330,-3701.029710,-4589.276840,-76915.987999
11372.845894,-6809.894666,1036.288319,-77528.864398
11372.848457,-592.164754,-888.247130,-78754.617194
11372.851020,-2072.576638,-1628.453072,-75996.673402
11372.853584,-6809.894666,-4589.276840,-78448.178995
11372.856147,2960.823768,-3256.906145,-78907.836294
11372.858711,-3404.947333,-8882.471304,-76915.987999
11372.861274,-4589.276840,-2220.617826,-74004.825107
11372.863837,1184.329507,-4441.235652,-80593.246390
11372.866401,1628.453072,-2516.700203,-77988.521696
11372.868964,296.082377,148.041188,-77222.426198
11372.871527,-3108.864956,-3552.988522,-77375.645298
11372.874091,3849.070898,-6513.812290,-77528.864398
11372.876654,-12583.501014,-7994.224174,-76456.330700
11372.879189,-8142.265362,-4293.194464,-77222.426198
11372.881723,-4145.153275,-6661.853478,-78754.617194
11372.884258,-5329.482782,-3256.906145,-77528.864398
11372.886793,-8586.388927,-2664.741391,-78754.617194
11372.889327,5033.400406,-1776.494261,-77375.645298
11372.891862,-1036.288319,-2516.700203,-76609.549800
11372.894397,-888.247130,148.041188,-79061.055394
11372.896931,3404.947333,-4145.153275,-78907.836294
11372.899466,-888.247130,-740.205942,-76609.549800
11372.902000,-1184.329507,1480.411884,-75537.016103
11372.904535,7254.018232,3997.112087,-79214.274493
11372.907070,-2368.659014,3256.906145,-76456.330700
11372.909604,-2960.823768,2664.741391,-75843.454302
11372.912139,3404.947333,4737.318029,-78141.740796
11372.914673,10362.883188,1776.494261,-76609.549800
11372.917208,-592.164754,-592.164754,-77069.207099
11372.919743,5477.523971,148.041188,-78294.959896
11372.922277,2072.576638,-1480.411884,-76609.549800
11372.924812,-1480.411884,3701.029710,-75537.016103
11372.927346,296.082377,3997.112087,-77988.521696
11372.929881,10955.047942,740.205942,-79520.712692
11372.932416,3997.112087,3108.864956,-76609.549800
11372.934950,-6069.688724,3404.947333,-77528.864398
11372.937485,5181.441594,-2516.700203,-78448.178995
11372.940020,-1036.288319,1036.288319,-78141.740796
11372.942554,0.000000,1480.411884,-79214.274493
11372.945089,9326.594869,6217.729913,-78141.740796
11372.947623,4885.359217,3552.988522,-75996.673402
11372.950158,2664.741391,3404.947333,-75843.454302
11372.952693,9030.512492,3256.906145,-79061.055394
11372.955227,6661.853478,1036.288319,-77222.426198
11372.957762,-1776.494261,2812.782580,-77222.426198
11372.960302,3552.988522,592.164754,-78294.959896
11372.962842,1036.288319,-1776.494261,-77835.302597
11372.965382,-7402.059420,-444.123565,-75843.454302
11372.967922,7402.059420,4737.318029,-78294.959896
11372.970462,-296.082377,-4737.318029,-80746.465489
11372.973002,-4293.194464,-2220.617826,-76149.892501
11372.975542,-7402.059420,-6809.894666,-79980.369991
11372.978082,4441.235652,-6661.853478,-77528.864398
11372.980622,-4589.276840,-8438.347739,-78294.959896
11372.983162,-4293.194464,-2368.659014,-77988.521696
11372.985702,740.205942,-5773.606348,-80133.589091
11372.988242,-5329.482782,740.205942,-77375.645298
11372.990782,-6661.853478,444.123565,-77682.083497
11372.993322,2220.617826,-3552.988522,-78294.959896
11372.995862,-1184.329507,-3552.988522,-76303.111601
11372.998402,-6217.729913,-7254.018232,-77375.645298
11373.000942,-1924.535449,-3552.988522,-78294.959896
11373.003482,444.123565,-2812.782580,-76303.111601
11373.006022,-5477.523971,-3701.029710,-78601.398095
11373.008562,1628.453072,2664.741391,-78294.959896
11373.011102,1776.494261,-4885.359217,-75690.235202
11373.013642,-9622.677246,-3701.029710,-76149.892501
11373.016182,-6217.729913,-5181.441594,-80286.808190
11373.018722,-1628.453072,-9178.553681,-79367.493593
11373.021262,-10510.924376,-6069.688724,-77222.426198
11373.023802,-8438.347739,-3256.906145,-77835.302597
11373.026341,2220.617826,-7698.141797,-79061.055394
11373.028881,-6365.771101,-1036.288319,-77528.864398
11373.031421,-4293.194464,-1036.288319,-75996.673402
11373.033961,5773.606348,-2072.576638,-79520.712692
11373.036501,-3552.988522,-1628.453072,-77682.083497
11373.039041,2072.576638,0.000000,-76915.987999
11373.041581,3849.070898,3997.112087,-79061.055394
11373.044121,6809.894666,2664.741391,-79061.055394
11373.046661,-3552.988522,2812.782580,-77375.645298
11373.049201,-1924.535449,3552.988522,-79367.493593
11373.051741,8586.388927,-148.041188,-79673.931792
11373.054281,2812.782580,4885.359217,-76762.768900
11373.056821,3849.070898,1776.494261,-78907.836294
11373.059361,8734.430116,-4145.153275,-79367.493593
11373.061907,740.205942,-888.247130,-75843.454302
11373.064452,-6661.853478,2960.823768,-75537.016103
11373.066997,6365.771101,-296.082377,-78907.836294
11373.069542,9178.553681,3997.112087,-77835.302597
11373.072088,-2368.659014,-1480.411884,-77682.083497
11373.074633,1036.288319,296.082377,-77069.207099
11373.077178,1628.453072,-3404.947333,-75383.797003
11373.079723,-2960.823768,3404.947333,-76609.549800
11373.082269,1332.370696,5033.400406,-78754.617194
11373.084814,11547.212695,2516.700203,-78601.398095
11373.087359,4293.194464,4737.318029,-77528.864398
11373.089904,6513.812290,4589.276840,-78754.617194
11373.092449,8142.265362,-1776.494261,-79367.493593
11373.094995,1924.535449,4441.235652,-76915.987999
11373.097540,888.247130,2664.741391,-78907.836294
11373.100085,5921.647536,-3256.906145,-80746.465489
11373.102630,-6661.853478,-148.041188,-75690.235202
11373.105176,-296.082377,3552.988522,-75077.358804
11373.107721,-1184.329507,-1628.453072,-79214.274493
11373.110266,-2368.659014,-4737.318029,-75690.235202
11373.112811,-6957.935855,-5773.606348,-76303.111601
11373.115357,3108.864956,-5329.482782,-78294.959896
11373.117902,-2220.617826,-7846.182985,-77222.426198
11373.120447,-6957.935855,-3256.906145,-75843.454302
11373.122992,148.041188,-4885.359217,-77528.864398
11373.125538,-2368.659014,-740.205942,-75690.235202
11373.128083,-6809.894666,-2220.617826,-76762.768900
11373.130628,-1480.411884,-148.041188,-77988.521696
11373.133173,2960.823768,-6513.812290,-78294.959896
11373.135719,-5329.482782,-3997.112087,-76303.111601
11373.138264,-1036.288319,-2220.617826,-78907.836294
11373.140809,1184.329507,-6809.894666,-79061.055394
11373.143354,-2368.659014,2812.782580,-76762.768900
11373.145900,-3108.864956,-4293.194464,-78448.178995
11373.148445,3552.988522,-3849.070898,-77222.426198
11373.150990,-888.247130,-4737.318029,-75383.797003
11373.153535,-10510.924376,-3701.029710,-75537.016103
11373.156081,-3108.864956,-7254.018232,-80286.808190
11373.158626,-8586.388927,-3849.070898,-76456.330700
11373.161171,-10362.883188,-5477.523971,-77222.426198
11373.163720,-2960.823768,-3256.906145,-78294.959896
11373.166270,-444.123565,-4737.318029,-76609.549800
11373.168819,-2072.576638,296.082377,-75843.454302
11373.171369,4737.318029,444.123565,-79673.931792
11373.173918,1036.288319,-5921.647536,-80133.589091
11373.176468,-2072.576638,-740.205942,-76915.987999
11373.179018,6513.812290,2368.659014,-79061.055394
11373.181567,7698.141797,3552.988522,-77069.207099
11373.184117,-6217.729913,4441.235652,-76915.987999
11373.186666,1628.453072,1776.494261,-78294.959896
11373.189216,6661.853478,-296.082377,-77988.521696
11373.191765,1036.288319,6069.688724,-76303.111601
11373.194315,5921.647536,592.164754,-77528.864398
11373.196864,7846.182985,0.000000,-78754.617194
11373.199414,-592.164754,-740.205942,-76303.111601
11373.201963,-6513.812290,3997.112087,-76609.549800
11373.204513,6069.688724,2220.617826,-79520.712692
11373.207062,6365.771101,2960.823768,-77682.083497
11373.209612,-2220.617826,-592.164754,-77682.083497
11373.212161,2960.823768,296.082377,-78141.740796
11373.214711,1628.453072,444.123565,-76149.892501
11373.217260,-6661.853478,740.205942,-77835.302597
11373.219810,7550.100608,5625.565159,-79214.274493
11373.222359,6809.894666,740.205942,-78907.836294
11373.224909,4737.318029,4145.153275,-76303.111601
11373.227458,6513.812290,3552.988522,-79520.712692
11373.230008,7402.059420,-740.205942,-78601.398095
11373.232557,740.205942,4441.235652,-76609.549800
11373.235107,2960.823768,2812.782580,-79827.150892
11373.237656,1628.453072,-2960.823768,-78141.740796
11373.240206,592.164754,148.041188,-76762.768900
11373.242755,-4145.153275,3108.864956,-76149.892501
11373.245305,-296.082377,-6217.729913,-79673.931792
11373.247854,-6661.853478,-3701.029710,-77069.207099
11373.250404,-4737.318029,-4885.359217,-78141.740796
11373.252953,5181.441594,-6809.894666,-78294.959896
11373.255503,-3552.988522,-4293.194464,-76303.111601
11373.258052,-6365.771101,-5033.400406,-77682.083497
11373.260602,3108.864956,-3701.029710,-78601.398095
11373.263151,-2812.782580,-3552.988522,-76609.549800
11373.265675,-7846.182985,-3256.906145,-76456.330700
11373.268199,-1184.329507,-2664.741391,-79673.931792
11373.270723,3108.864956,-9178.553681,-77222.426198
11373.273247,-7550.100608,-6513.812290,-75996.673402
11373.275771,-740.205942,1184.329507,-78448.178995
11373.278295,1776.494261,-6809.894666,-79673.931792
11373.280819,-1184.329507,1036.288319,-75383.797003
11373.283343,-1332.370696,-4589.276840,-78448.178995
11373.285867,3849.070898,-6513.812290,-78448.178995
11373.288391,-5329.482782,-7105.977043,-77682.083497
11373.290915,-9770.718434,-4737.318029,-78294.959896
11373.293439,-3404.947333,-6957.935855,-79827.150892
11373.295963,-5773.606348,-3701.029710,-75843.454302
11373.298487,-10658.965565,-5477.523971,-77988.521696
11373.301011,3701.029710,-5921.647536,-78601.398095
11373.303535,-444.123565,0.000000,-76149.892501
11373.306059,592.164754,2368.659014,-75690.235202
11373.308583,-1036.288319,-1776.494261,-79980.369991
11373.311107,6809.894666,-1480.411884,-75537.016103
11373.313631,0.000000,740.205942,-75996.673402
11373.316155,6069.688724,4441.235652,-77682.083497
11373.318679,592.164754,1776.494261,-77069.207099
11373.321203,-2220.617826,1332.370696,-75843.454302
11373.323727,4441.235652,3701.029710,-79673.931792
11373.326251,6365.771101,1480.411884,-77069.207099
11373.328775,-296.082377,1184.329507,-78294.959896
11373.331299,-3108.864956,1332.370696,-77528.864398
11373.333823,8290.306550,296.082377,-77222.426198
11373.336347,-3552.988522,3256.906145,-76915.987999
11373.338871,-2072.576638,5477.523971,-78448.178995
11373.341395,10658.965565,-1036.288319,-80440.027290
11373.343919,444.123565,2368.659014,-77222.426198
11373.346443,-592.164754,-1036.288319,-78907.836294
11373.348967,3701.029710,2072.576638,-79061.055394
11373.351491,5329.482782,3552.988522,-77528.864398
11373.354015,-4737.318029,1776.494261,-77682.083497
11373.356539,10955.047942,7254.018232,-77682.083497
11373.359063,9178.553681,740.205942,-75996.673402
11373.361587,3108.864956,4145.153275,-75996.673402
11373.364111,4441.235652,3256.906145,-79673.931792
11373.366644,6957.935855,1924.535449,-77222.426198
11373.369176,-6513.812290,-592.164754,-77375.645298
11373.371708,1628.453072,1776.494261,-77375.645298
11373.374241,8290.306550,-1924.535449,-78448.178995
11373.376773,-4441.235652,1332.370696,-77069.207099
11373.379306,-10658.965565,-5921.647536,-79520.712692
11373.381838,1480.411884,-7105.977043,-79367.493593
11373.384370,-3256.906145,-4885.359217,-77222.426198
11373.386903,-4885.359217,-5477.523971,-79827.150892
11373.389435,2812.782580,-6957.935855,-79520.712692
11373.391968,-4145.153275,-4441.235652,-77528.864398
11373.394500,-5181.441594,740.205942,-78601.398095
11373.397032,-2664.741391,-2664.741391,-78294.959896
11373.399565,-740.205942,-3701.029710,-77988.521696
11373.402097,-7846.182985,-1924.535449,-76303.111601
11373.404629,-148.041188,-3701.029710,-77682.083497
11373.407162,1332.370696,-7994.224174,-77222.426198
11373.409694,-6217.729913,-1332.370696,-76456.330700
11373.412227,2812.782580,-1628.453072,-80286.808190
11373.414759,4885.359217,-2220.617826,-75690.235202
11373.417291,-8438.347739,-4441.235652,-75843.454302
11373.419824,-5625.565159,-7105.977043,-79673.931792
11373.422356,-148.041188,-8142.265362,-79980.369991
11373.424888,-11843.295072,-4145.153275,-76762.768900
11373.427421,-8438.347739,-4737.318029,-78907.836294
11373.429953,-1776.494261,-9178.553681,-79214.274493
11373.432486,-4589.276840,-5477.523971,-77222.426198
11373.435018,888.247130,-444.123565,-78141.740796
11373.437550,10807.006753,-1924.535449,-78294.959896
11373.440083,-6365.771101,-444.123565,-77988.521696
11373.442615,-888.247130,888.247130,-76456.330700
11373.445148,3552.988522,1776.494261,-80286.808190
11373.447680,6069.688724,3404.947333,-77375.645298
11373.450212,-1628.453072,2072.576638,-76149.892501
11373.452745,3552.988522,3552.988522,-78601.398095
11373.455277,6661.853478,592.164754,-79367.493593
11373.457809,1628.453072,3849.070898,-76762.768900
11373.460342,2812.782580,1776.494261,-78907.836294
11373.462874,9178.553681,-444.123565,-78754.617194
11373.465407,-592.164754,1924.535449,-75077.358804
11373.467950,-2072.576638,-1184.329507,-75996.673402
11373.470489,6809.894666,3701.029710,-78907.836294
11373.473029,2664.741391,-148.041188,-77988.521696
11373.475569,-4441.235652,2220.617826,-76149.892501
11373.478108,4589.276840,-1184.329507,-75537.016103
11373.480648,3256.906145,1628.453072,-75843.454302
11373.483188,-3108.864956,1628.453072,-78754.617194
11373.485727,9770.718434,4145.153275,-79367.493593
11373.488267,12139.377449,4293.194464,-78448.178995
11373.490807,2368.659014,2664.741391,-76915.987999
11373.493346,7994.224174,3849.070898,-78448.178995
11373.495886,7105.977043,-444.123565,-77835.302597
11373.498426,-592.164754,4145.153275,-76149.892501
11373.500965,-3849.070898,0.000000,-78141.740796
11373.503505,5921.647536,-2072.576638,-78294.959896
11373.506045,-4293.194464,592.164754,-76915.987999
11373.508584,-10658.965565,-3256.906145,-75230.577904
11373.511124,-740.205942,-7846.182985,-79367.493593
11373.513664,-2368.659014,-4589.276840,-76149.892501
11373.516203,-7402.059420,-5921.647536,-77988.521696
11373.518743,1184.329507,-4589.276840,-78601.398095
11373.521283,-3701.029710,-5477.523971,-76915.987999
11373.523822,-5773.606348,444.123565,-76762.768900
11373.526362,-2368.659014,-2072.576638,-78754.617194
11373.528902,-2516.700203,-1628.453072,-77682.083497
11373.531441,-6069.688724,-3552.988522,-77528.864398
11373.533981,-148.041188,-2812.782580,-79980.369991
11373.536520,-1184.329507,-8438.347739,-77375.645298
11373.539060,-3701.029710,-4441.235652,-75690.235202
11373.541600,444.123565,148.041188,-79214.274493
11373.544139,1924.535449,-3404.947333,-78141.740796
11373.546679,-4737.318029,-5477.523971,-78141.740796
11373.549219,-1924.535449,-4145.153275,-77988.521696
11373.551758,-3108.864956,-10362.883188,-78601.398095
11373.554298,-9326.594869,-6365.771101,-76609.549800
11373.556838,-11251.130318,-3404.947333,-76149.892501
11373.559377,-148.041188,-9030.512492,-79520.712692
11373.561917,-2664.741391,-5921.647536,-76456.330700
11373.564457,-3256.906145,-888.247130,-77528.864398
11373.566996,8586.388927,148.041188,-77222.426198
11373.569542,-4885.359217,-1184.329507,-77682.083497
11373.572088,-1184.329507,1776.494261,-78448.178995
11373.574634,10658.965565,444.123565,-80286.808190
11373.577180,5477.523971,4441.235652,-76456.330700
11373.579726,-4737.318029,1776.494261,-76303.111601
11373.582272,5921.647536,2664.741391,-78907.836294
11373.584818,2960.823768,-1628.453072,-78141.740796
11373.587364,-296.082377,6957.935855,-75077.358804
11373.589910,5329.482782,296.082377,-80593.246390
11373.592456,8586.388927,-2664.741391,-77375.645298
11373.595002,-2368.659014,740.205942,-75690.235202
11373.597548,2516.700203,3701.029710,-77835.302597
11373.600094,8290.306550,1332.370696,-79214.274493
11373.602640,-592.164754,-444.123565,-79673.931792
11373.605186,-3997.112087,2072.576638,-77682.083497
11373.607732,8142.265362,-1036.288319,-76915.987999
11373.610278,-2516.700203,2812.782580,-75537.016103
11373.612824,740.205942,1184.329507,-79827.150892
11373.615370,10362.883188,6217.729913,-78448.178995
11373.617916,7402.059420,5773.606348,-77069.207099
11373.620462,5181.441594,5033.400406,-77528.864398
11373.623008,7846.182985,2664.741391,-79367.493593
11373.625554,5181.441594,592.164754,-77375.645298
11373.628100,-5033.400406,888.247130,-75077.358804
11373.630646,0.000000,2368.659014,-78141.740796
11373.633192,5181.441594,-2220.617826,-78601.398095
11373.635738,-6513.812290,-888.247130,-77375.645298
11373.638284,-5477.523971,-5329.482782,-77528.864398
11373.640830,-2072.576638,-7698.141797,-76915.987999
11373.643376,-8734.430116,-3552.988522,-76303.111601
11373.645922,-6217.729913,-6217.729913,-79673.931792
11373.648468,4293.194464,-6365.771101,-78754.617194
11373.651014,-4737.318029,-3256.906145,-77222.426198
11373.653560,-3849.070898,148.041188,-78294.959896
11373.656106,-2368.659014,-3404.947333,-78754.617194
11373.658652,-2664.741391,-2516.700203,-77835.302597
11373.661198,-8734.430116,-2368.659014,-80593.246390
11373.663744,2664.741391,-2072.576638,-79520.712692
11373.666290,-2960.823768,-7105.977043,-77682.083497
11373.668836,-5033.400406,-2664.741391,-76149.892501
11373.671386,-3256.906145,-3404.947333,-79520.712692
11373.673937,3404.947333,-4589.276840,-77375.645298
11373.676487,-8142.265362,-2516.700203,-75690.235202
11373.679038,-1332.370696,-5033.400406,-77835.302597
11373.681589,-7550.100608,-8882.471304,-78754.617194
11373.684139,-14063.912898,-6957.935855,-76456.330700
11373.686690,-4145.153275,-5033.400406,-78294.959896
11373.689240,-3552.988522,-7105.977043,-76456.330700
11373.691791,-592.164754,-4589.276840,-77988.521696
11373.694341,1776.494261,1332.370696,-78754.617194
11373.696892,2072.576638,-2072.576638,-77988.521696
11373.699442,-592.164754,-592.164754,-77222.426198
11373.701993,2664.741391,4293.194464,-77682.083497
11373.704543,8882.471304,1776.494261,-79520.712692
11373.707094,-444.123565,4589.276840,-76609.549800
11373.709644,296.082377,2220.617826,-77682.083497
11373.712195,7105.977043,444.123565,-77988.521696
11373.714745,4441.235652,1184.329507,-77069.207099
11373.717296,-444.123565,2664.741391,-77069.207099
11373.719846,7698.141797,2664.741391,-78294.959896
11373.722397,4293.194464,-444.123565,-75996.673402
11373.724947,-5033.400406,4293.194464,-75230.577904
11373.727498,5181.441594,2516.700203,-78294.959896
11373.730048,2664.741391,-2812.782580,-77988.521696
11373.732599,-3404.947333,5773.606348,-76149.892501
11373.735149,-1628.453072,1480.411884,-76149.892501
11373.737700,7254.018232,740.205942,-78448.178995
11373.740250,-2960.823768,592.164754,-78754.617194
11373.742801,9178.553681,8882.471304,-77069.207099
11373.745351,12435.459826,2812.782580,-79367.493593
11373.747902,2812.782580,5625.565159,-76149.892501
11373.750452,5773.606348,2812.782580,-80593.246390
11373.753003,6365.771101,-148.041188,-78754.617194
11373.755554,-5329.482782,1628.453072,-75996.673402
11373.758104,-8142.265362,-740.205942,-77222.426198
11373.760655,9918.759623,2812.782580,-79061.055394
11373.763205,-5773.606348,-4441.235652,-78754.617194
11373.765756,-8142.265362,-4589.276840,-75996.673402
11373.768306,-1332.370696,-5921.647536,-78448.178995
11373.770857,-1332.370696,-5625.565159,-76149.892501
11373.773411,-9030.512492,-6217.729913,-79061.055394
11373.775966,3404.947333,-5033.400406,-79367.493593
11373.778521,-1776.494261,-4441.235652,-75996.673402
11373.781075,-7550.100608,-1628.453072,-76609.549800
11373.783630,-5477.523971,592.164754,-77682.083497
11373.786184,-444.123565,-5181.441594,-78448.178995
11373.788739,-8882.471304,-5773.606348,-77069.207099
11373.791294,3108.864956,-1332.370696,-79367.493593
11373.793848,1480.411884,-8142.265362,-78294.959896
11373.796403,-4441.235652,-2220.617826,-76762.768900
11373.798958,296.082377,-2960.823768,-79214.274493
11373.801512,1184.329507,-3256.906145,-79673.931792
11373.804067,-888.247130,-3849.070898,-76609.549800
11373.806622,-11547.212695,-4885.359217,-77835.302597
11373.809176,-1924.535449,-9622.677246,-80286.808190
11373.811731,-10955.047942,-6365.771101,-76915.987999
11373.814285,-9622.677246,-4145.153275,-76609.549800
11373.816840,1628.453072,-6365.771101,-78448.178995
11373.819395,4145.153275,-4145.153275,-77988.521696
11373.821949,-2220.617826,1480.411884,-77835.302597
11373.824504,3108.864956,2072.576638,-78448.178995
11373.827059,6809.894666,-592.164754,-77528.864398
11373.829613,1924.535449,3997.112087,-77069.207099
11373.832168,3849.070898,6957.935855,-78448.178995
11373.834723,2072.576638,-1036.288319,-76609.549800
11373.837277,0.000000,2368.659014,-76149.892501
11373.839832,3404.947333,1924.535449,-78754.617194
11373.842386,5773.606348,2812.782580,-77222.426198
11373.844941,-2516.700203,-296.082377,-77682.083497
11373.847496,-740.205942,3552.988522,-77222.426198
11373.850050,5625.565159,148.041188,-78294.959896
11373.852605,592.164754,2368.659014,-76149.892501
11373.855160,-1036.288319,2072.576638,-78601.398095
11373.857714,6957.935855,1924.535449,-80286.808190
11373.860269,1480.411884,-1924.535449,-77682.083497
11373.862824,-5477.523971,3108.864956,-74770.920605
11373.865378,5773.606348,1776.494261,-78448.178995
11373.867933,6513.812290,4441.235652,-76762.768900
11373.870487,6069.688724,5181.441594,-77682.083497
11373.873042,3404.947333,2960.823768,-78754.617194
11373.875600,11695.253884,4885.359217,-78907.836294
11373.878158,-1628.453072,0.000000,-78907.836294
11373.880717,-5625.565159,5033.400406,-78141.740796
11373.883275,4145.153275,-3108.864956,-78294.959896
11373.885833,4589.276840,1332.370696,-77222.426198
11373.888391,-8882.471304,-3849.070898,-79367.493593
11373.890949,444.123565,-8142.265362,-78294.959896
11373.893508,-10066.800811,-5477.523971,-76609.549800
11373.896066,-7698.141797,-2812.782580,-76303.111601
11373.898624,148.041188,-7994.224174,-80440.027290
11373.901182,-444.123565,-3849.070898,-76609.549800
11373.903740,-5625.565159,-4737.318029,-76609.549800
11373.906298,296.082377,148.041188,-77222.426198
11373.908857,-5625.565159,-3404.947333,-75537.016103
11373.911415,-4885.359217,-5625.565159,-77069.207099
11373.913973,-1480.411884,-5033.400406,-79214.274493
11373.916531,888.247130,-5033.400406,-79061.055394
11373.919089,0.000000,-740.205942,-76456.330700
11373.921648,-5625.565159,-4589.276840,-79827.150892
11373.924206,4293.194464,-2812.782580,-77988.521696
11373.926764,-5625.565159,-5033.400406,-77222.426198
11373.929322,-3108.864956,-3256.906145,-76915.987999
11373.931880,-2664.741391,-8734.430116,-78448.178995
11373.934438,-11843.295072,-5921.647536,-76149.892501
11373.936997,-10510.924376,-7994.224174,-78601.398095
11373.939555,148.041188,-6661.853478,-76456.330700
11373.942113,2220.617826,-3404.947333,-76149.892501
11373.944671,296.082377,888.247130,-77375.645298
11373.947229,-592.164754,-1332.370696,-76762.768900
11373.949788,3256.906145,2664.741391,-76149.892501
11373.952346,-2516.700203,3997.112087,-76915.987999
11373.954904,9326.594869,5033.400406,-79673.931792
11373.957462,2368.659014,2812.782580,-75843.454302
11373.960020,-1776.494261,2516.700203,-76303.111601
11373.962578,3108.864956,2516.700203,-79980.369991
11373.965137,8142.265362,740.205942,-78141.740796
11373.967695,0.000000,4145.153275,-78294.959896
11373.970253,3849.070898,2220.617826,-79214.274493
11373.972811,7254.018232,-888.247130,-78754.617194
11373.975369,-2516.700203,1184.329507,-75537.016103
11373.977901,2812.782580,4441.235652,-78448.178995
11373.980433,6513.812290,-3256.906145,-78907.836294
11373.982965,-5033.400406,1332.370696,-78141.740796
11373.985497,-4441.235652,5181.441594,-76609.549800
11373.988029,2812.782580,740.205942,-79214.274493
11373.990561,5477.523971,3701.029710,-77528.864398
11373.993093,2072.576638,6661.853478,-77222.426198
11373.995625,16284.530724,4589.276840,-78601.398095
11373.998157,8142.265362,3849.070898,-77988.521696
11374.000689,-1332.370696,6069.688724,-76762.768900
11374.003221,4293.194464,-2664.741391,-79214.274493
11374.005753,-1776.494261,2368.659014,-74770.920605
11374.008285,-444.123565,0.000000,-75996.673402
11374.010817,444.123565,-2220.617826,-80746.465489
11374.013349,-5033.400406,-9030.512492,-77375.645298
11374.015881,-8734.430116,-7994.224174,-75690.235202
11374.018413,-2812.782580,-6217.729913,-78141.740796
11374.020945,-592.164754,-7402.059420,-77682.083497
11374.023477,-6513.812290,-3256.906145,-76762.768900
11374.026009,148.041188,-3552.988522,-77835.302597
11374.028541,2072.576638,-4885.359217,-77375.645298
11374.031073,-6809.894666,-2516.700203,-76456.330700
11374.033605,-5477.523971,-4293.194464,-78294.959896
11374.036137,3701.029710,-6661.853478,-79367.493593
11374.038669,-1036.288319,-296.082377,-77375.645298
11374.041201,-2812.782580,-3108.864956,-77988.521696
11374.043733,1036.288319,-2516.700203,-78907.836294
11374.046265,1184.329507,-3108.864956,-77682.083497
11374.048797,-9770.718434,-2960.823768,-78448.178995
11374.051329,2368.659014,-3701.029710,-78601.398095
11374.053861,-7402.059420,-9918.759623,-76915.987999
11374.056393,-13915.871710,-5329.482782,-75383.797003
11374.058925,-8586.388927,-9030.512492,-78601.398095
11374.061457,-1332.370696,-8142.265362,-75996.673402
11374.063989,-3849.070898,-2812.782580,-76303.111601
11374.066521,7402.059420,1036.288319,-79980.369991
11374.069053,-2960.823768,-2516.700203,-77682.083497
11374.071585,-2812.782580,3849.070898,-75077.358804
11374.074117,5625.565159,4737.318029,-77682.083497
11374.076649,10066.800811,6365.771101,-79520.712692
11374.079188,-296.082377,2664.741391,-77528.864398
11374.081728,296.082377,3108.864956,-77835.302597
11374.084268,7254.018232,740.205942,-78294.959896
11374.086808,2516.700203,888.247130,-77375.645298
11374.089347,296.082377,3108.864956,-79520.712692
11374.091887,10066.800811,592.164754,-79061.055394
11374.094427,4441.235652,1924.535449,-77069.207099
11374.096967,-4589.276840,2220.617826,-77375.645298
11374.099506,1628.453072,-148.041188,-78601.398095
11374.102046,5477.523971,888.247130,-78294.959896
11374.104586,-5477.523971,-1628.453072,-77069.207099
11374.107126,7550.100608,3256.906145,-76149.892501
11374.109665,-296.082377,-1332.370696,-77682.083497
11374.112205,1036.288319,7550.100608,-75077.358804
11374.114745,11103.089130,3552.988522,-79673.931792
11374.117285,11991.336260,4441.235652,-74770.920605
11374.119824,3256.906145,3552.988522,-78141.740796
11374.122364,1036.288319,2664.741391,-78294.959896
11374.124904,592.164754,-1184.329507,-78294.959896
11374.127444,-3701.029710,1776.494261,-76609.549800
11374.129983,2072.576638,-1776.494261,-79673.931792
11374.132523,2220.617826,-7994.224174,-79520.712692
11374.135063,-8142.265362,-5181.441594,-74617.701505
11374.137603,-6069.688724,-6069.688724,-78294.959896
11374.140142,-148.041188,-7994.224174,-79367.493593
11374.142682,-2368.659014,-6513.812290,-78141.740796
11374.145222,-5625.565159,-2368.659014,-77069.207099
11374.147762,2220.617826,-1924.535449,-77069.207099
11374.150301,-1628.453072,-1924.535449,-75843.454302
11374.152841,-9622.677246,-3108.864956,-77682.083497
11374.155381,-2812.782580,-3108.864956,-79061.055394
11374.157921,-1184.329507,-3701.029710,-76456.330700
11374.160467,-4885.359217,-4441.235652,-77375.645298
11374.163013,2664.741391,1332.370696,-77835.302597
11374.165559,5625.565159,-7105.977043,-77682.083497
11374.168105,-9770.718434,-1776.494261,-76303.111601
11374.170651,-3108.864956,-3256.906145,-77988.521696
11374.173198,-1332.370696,-7550.100608,-78294.959896
11374.175744,-14063.912898,-6513.812290,-77069.207099
11374.178290,-8290.306550,-6809.894666,-79367.493593
11374.180836,-3849.070898,-10658.965565,-77988.521696
11374.183382,-5033.400406,-5921.647536,-76303.111601
11374.185928,0.000000,1036.288319,-77375.645298
11374.188474,0.000000,-1628.453072,-79827.150892
11374.191021,2368.659014,3108.864956,-75996.673402
11374.193567,-1480.411884,4441.235652,-76456.330700
11374.196113,11547.212695,6217.729913,-79520.712692
11374.198659,1480.411884,3552.988522,-79061.055394
11374.201205,-2664.741391,2220.617826,-77682.083497
11374.203751,8734.430116,888.247130,-77682.083497
11374.206298,2960.823768,2664.741391,-76149.892501
11374.208844,148.041188,-296.082377,-76915.987999
11374.211390,5921.647536,2664.741391,-79520.712692
11374.213936,8438.347739,-444.123565,-77069.207099
11374.216482,-2516.700203,2220.617826,-76456.330700
11374.219028,-148.041188,1628.453072,-77682.083497
11374.221575,6513.812290,-3997.112087,-77682.083497
11374.224121,-3997.112087,-148.041188,-76149.892501
11374.226667,3108.864956,3404.947333,-77988.521696
11374.229213,3849.070898,-444.123565,-78141.740796
11374.231759,3256.906145,5477.523971,-77528.864398
11374.234305,5625.565159,6661.853478,-77988.521696
11374.236851,17024.736666,4885.359217,-77988.521696
11374.239398,9030.512492,3701.029710,-77375.645298
11374.241944,-1924.535449,6513.812290,-78141.740796
11374.244490,888.247130,-2960.823768,-80133.589091
11374.247036,-2220.617826,444.123565,-76915.987999
11374.249582,-444.123565,-592.164754,-77375.645298
11374.252128,3552.988522,-5477.523971,-79367.493593
11374.254675,-4589.276840,-6661.853478,-75843.454302
11374.257221,-6957.935855,-7550.100608,-75230.577904
11374.259767,-2516.700203,-4293.194464,-78141.740796
11374.262319,-3552.988522,-6661.853478,-77375.645298
11374.264871,-5477.523971,-2516.700203,-76303.111601
11374.267423,444.123565,-2220.617826,-78141.740796
11374.269975,-1480.411884,-3552.988522,-77222.426198
11374.272527,-11695.253884,-2664.741391,-76762.768900
11374.275079,-6661.853478,-3701.029710,-78907.836294
11374.277631,-1332.370696,-4441.235652,-78141.740796
11374.280183,3849.070898,-3256.906145,-78141.740796
11374.282735,-7994.224174,-740.205942,-75230.577904
11374.285287,1924.535449,-3849.070898,-77682.083497
11374.287839,-888.247130,-5921.647536,-77835.302597
11374.290391,-7105.977043,-4441.235652,-75537.016103
11374.292943,-6217.729913,-5921.647536,-78141.740796
11374.295495,-8586.388927,-8438.347739,-76915.987999
11374.298047,-14359.995275,-10066.800811,-76609.549800
11374.300599,-3849.070898,-4441.235652,-77835.302597
11374.303151,8142.265362,-4293.194464,-78294.959896
11374.305703,-1184.329507,296.082377,-78294.959896
11374.308255,-5921.647536,444.123565,-79214.274493
11374.310807,12879.583391,3997.112087,-78601.398095
11374.313359,888.247130,5181.441594,-76609.549800
11374.315911,6217.729913,6661.853478,-79520.712692
11374.318463,5181.441594,1924.535449,-80440.027290
11374.321015,3256.906145,1924.535449,-75383.797003
11374.323567,-1628.453072,296.082377,-76762.768900
11374.326120,6809.894666,2960.823768,-79061.055394
11374.328672,7105.977043,-2072.576638,-77988.521696
11374.331224,1184.329507,3552.988522,-76303.111601
11374.333776,1480.411884,3404.947333,-77682.083497
11374.336328,1480.411884,2960.823768,-75690.235202
11374.338880,-2516.700203,-1628.453072,-75996.673402
11374.341432,2072.576638,296.082377,-77988.521696
11374.343984,7254.018232,2368.659014,-76456.330700
11374.346536,-3404.947333,444.123565,-77682.083497
11374.349088,6069.688724,4885.359217,-78907.836294
11374.351640,8586.388927,2072.576638,-79827.150892
11374.354192,8734.430116,8882.471304,-75537.016103
11374.356744,7105.977043,6217.729913,-79214.274493
11374.359296,10066.800811,1480.411884,-79980.369991
11374.361848,-9030.512492,296.082377,-77528.864398
11374.364404,-3849.070898,3701.029710,-75690.235202
11374.366961,4737.318029,-1924.535449,-79673.931792
11374.369517,-3108.864956,-7254.018232,-78294.959896
11374.372073,-11843.295072,-6069.688724,-76149.892501
11374.374629,1628.453072,-8438.347739,-77988.521696
11374.377186,-5773.606348,-6661.853478,-77375.645298
11374.379742,-7994.224174,-2664.741391,-77682.083497
11374.382298,1776.494261,-5773.606348,-80133.589091
11374.384855,-1776.494261,-1776.494261,-76456.330700
11374.387411,-7254.018232,-888.247130,-75230.577904
11374.389967,-1776.494261,-3701.029710,-79061.055394
11374.392524,296.082377,-5921.647536,-78294.959896
11374.395080,-5477.523971,-5329.482782,-76456.330700
11374.397636,888.247130,-1332.370696,-77069.207099
11374.400193,2072.576638,-5181.441594,-77835.302597
11374.402749,-6217.729913,-3552.988522,-76915.987999
11374.405305,-2072.576638,-4885.359217,-78907.836294
11374.407862,888.247130,-5773.606348,-76609.549800
11374.410418,-9918.759623,-5625.565159,-76609.549800
11374.412974,-16432.571912,-6069.688724,-78294.959896
11374.415531,1184.329507,-10807.006753,-79214.274493
11374.418087,-3256.906145,-5921.647536,-76609.549800
11374.420643,148.041188,-888.247130,-76915.987999
11374.423200,5477.523971,-592.164754,-79673.931792
11374.425756,-4589.276840,888.247130,-76609.549800
11374.428312,3256.906145,5625.565159,-76303.111601
11374.430869,12287.418637,6513.812290,-78448.178995
11374.433425,3552.988522,3552.988522,-78141.740796
11374.435981,-1332.370696,888.247130,-76915.987999
11374.438538,5033.400406,2960.823768,-78294.959896
11374.441094,3404.947333,-444.123565,-76303.111601
11374.443650,-888.247130,2220.617826,-76609.549800
11374.446207,6365.771101,296.082377,-79367.493593
11374.448763,7698.141797,1184.329507,-77069.207099
11374.451319,-2516.700203,3997.112087,-76149.892501
11374.453876,1776.494261,3701.029710,-77222.426198
11374.456432,3849.070898,-5181.441594,-79520.712692
11374.458988,592.164754,3849.070898,-77222.426198
11374.461545,-4737.318029,2812.782580,-78601.398095
11374.464101,9622.677246,1184.329507,-78294.959896
11374.466660,148.041188,4441.235652,-77375.645298
11374.469220,7402.059420,3701.029710,-79061.055394
11374.471780,18209.066173,6513.812290,-80440.027290
11374.474340,4293.194464,6809.894666,-77375.645298
11374.476900,-740.205942,4441.235652,-80133.589091
11374.479460,-3404.947333,-3404.947333,-79980.369991
11374.482020,4885.359217,1628.453072,-74617.701505
11374.484580,-7254.018232,-3849.070898,-75537.016103
11374.487140,-888.247130,-7550.100608,-79214.274493
11374.489700,-4145.153275,-9474.636058,-76915.987999
11374.492260,-7402.059420,-6957.935855,-75690.235202
11374.494820,-2812.782580,-5181.441594,-77375.645298
11374.497380,-2960.823768,-5181.441594,-76149.892501
11374.499940,-5773.606348,-2072.576638,-77222.426198
11374.502500,-2812.782580,592.164754,-77835.302597
11374.505060,0.000000,-4589.276840,-78294.959896
11374.507620,-1924.535449,-5625.565159,-77835.302597
11374.510180,-6365.771101,-3404.947333,-78294.959896
11374.512740,5181.441594,-3701.029710,-78294.959896
11374.515300,-6661.853478,-2812.782580,-77222.426198
11374.517860,-592.164754,-1184.329507,-77988.521696
11374.520420,4885.359217,-7105.977043,-79367.493593
11374.522980,-7105.977043,-4441.235652,-75383.797003
11374.525540,-11103.089130,-5329.482782,-75230.577904
11374.528100,-8586.388927,-4885.359217,-78294.959896
11374.530660,-8290.306550,-11103.089130,-77682.083497
11374.533220,-9030.512492,-5773.606348,-75383.797003
11374.535780,6513.812290,-4885.359217,-77375.645298
11374.538340,1628.453072,-740.205942,-76456.330700
11374.540900,-7698.141797,2220.617826,-77375.645298
11374.543460,6513.812290,1776.494261,-78141.740796
11374.546020,12139.377449,4145.153275,-77375.645298
11374.548580,-1776.494261,7402.059420,-77988.521696
11374.551140,4293.194464,5625.565159,-79520.712692
11374.553700,4589.276840,-1184.329507,-78907.836294
11374.556260,-296.082377,2516.700203,-75383.797003
11374.558820,2072.576638,444.123565,-80440.027290
11374.561380,9326.594869,148.041188,-79673.931792
11374.563940,1184.329507,1480.411884,-77375.645298
11374.566500,1776.494261,6661.853478,-77682.083497
11374.569062,4145.153275,-888.247130,-79367.493593
11374.571625,592.164754,-1184.329507,-77222.426198
11374.574187,-4885.359217,2368.659014,-78448.178995
11374.576749,6069.688724,-148.041188,-78294.959896
11374.579312,1036.288319,3256.906145,-75843.454302
11374.581874,-740.205942,2812.782580,-78141.740796
11374.584436,11695.253884,2664.741391,-79061.055394
11374.586999,15100.201217,6513.812290,-76303.111601
11374.589561,2072.576638,6217.729913,-76456.330700
11374.592123,4441.235652,4145.153275,-80133.589091
11374.594686,-5625.565159,-3552.988522,-78448.178995
11374.597248,1184.329507,-1776.494261,-75537.016103
11374.599810,-1924.535449,-2664.741391,-78907.836294
11374.602372,-1776.494261,-9178.553681,-76762.768900
11374.604935,-9918.759623,-10510.924376,-76456.330700
11374.607497,-1036.288319,-7698.141797,-78141.740796
11374.610059,-2664.741391,-7402.059420,-76609.549800
11374.612622,-3701.029710,-1628.453072,-77222.426198
11374.615184,-5773.606348,-2368.659014,-78601.398095
11374.617746,4441.235652,-2960.823768,-78448.178995
11374.620309,-5773.606348,-740.205942,-76609.549800
11374.622871,-8586.388927,-1924.535449,-78754.617194
11374.625433,-740.205942,-9770.718434,-79061.055394
11374.627995,-740.205942,-592.164754,-75537.016103
11374.630558,-6661.853478,-2812.782580,-78754.617194
11374.633120,3701.029710,-888.247130,-78907.836294
11374.635682,2368.659014,-3997.112087,-78294.959896
11374.638245,-10362.883188,-5033.400406,-75230.577904
11374.640807,-5921.647536,-3404.947333,-76915.987999
11374.643369,-11843.295072,-9918.759623,-77222.426198
11374.645932,-12287.418637,-8882.471304,-76762.768900
11374.648494,-2960.823768,-8290.306550,-77988.521696
11374.651056,6957.935855,-2812.782580,-74770.920605
11374.653618,-5921.647536,296.082377,-75843.454302
11374.656181,-740.205942,1480.411884,-79061.055394
11374.658743,9474.636058,1924.535449,-79214.274493
11374.661305,5181.441594,9918.759623,-77069.207099
11374.663868,-1184.329507,5921.647536,-80286.808190
11374.666430,9918.759623,740.205942,-79214.274493
11374.668992,-444.123565,1184.329507,-76456.330700
11374.671528,888.247130,1332.370696,-79214.274493
11374.674064,6957.935855,-296.082377,-79520.712692
11374.676600,1924.535449,888.247130,-79214.274493
11374.679136,6069.688724,1036.288319,-78907.836294
11374.681672,2812.782580,1332.370696,-78294.959896
11374.684208,2072.576638,-148.041188,-75843.454302
11374.686744,-2368.659014,-592.164754,-77069.207099
11374.689280,3404.947333,3849.070898,-78754.617194
11374.691816,6513.812290,1184.329507,-77988.521696
11374.694351,1332.370696,2812.782580,-77222.426198
11374.696887,2516.700203,4293.194464,-79214.274493
11374.699423,17764.942608,3849.070898,-78141.740796
11374.701959,5773.606348,6957.935855,-76915.987999
11374.704495,4589.276840,7105.977043,-79367.493593
11374.707031,-1036.288319,-296.082377,-79520.712692
11374.709567,1480.411884,-1776.494261,-74924.139704
11374.712103,-3849.070898,-2960.823768,-75843.454302
11374.714639,-2812.782580,-6957.935855,-78294.959896
11374.717175,-6217.729913,-8734.430116,-76915.987999
11374.719711,-6365.771101,-9030.512492,-76609.549800
11374.722247,592.164754,-5921.647536,-76915.987999
11374.724783,-3997.112087,-5329.482782,-76762.768900
11374.727318,-7846.182985,1036.288319,-77069.207099
11374.729854,-444.123565,-592.164754,-78754.617194
11374.732390,2220.617826,-2960.823768,-77375.645298
11374.734926,-11251.130318,-3256.906145,-76762.768900
11374.737462,-1480.411884,-2664.741391,-79827.150892
11374.739998,1332.370696,-9918.759623,-78448.178995
11374.742534,-2664.741391,1480.411884,-74464.482406
11374.745070,444.123565,-1776.494261,-80133.589091
11374.747606,2368.659014,-4441.235652,-77988.521696
11374.750142,-8142.265362,-5477.523971,-76915.987999
11374.752678,-13915.871710,-3997.112087,-77375.645298
11374.755214,-8290.306550,-8142.265362,-79980.369991
11374.757749,-9770.718434,-8734.430116,-77222.426198
11374.760285,-7550.100608,-8882.471304,-78448.178995
11374.762821,10658.965565,-3701.029710,-77375.645298
11374.765357,-296.082377,1036.288319,-76762.768900
11374.767893,-6661.853478,1480.411884,-77988.521696
11374.770429,10362.883188,5033.400406,-79061.055394
11374.772973,10066.800811,6217.729913,-76456.330700
11374.775516,-2516.700203,6661.853478,-77069.207099
11374.778060,3552.988522,2516.700203,-80286.808190
11374.780603,7550.100608,-1924.535449,-77222.426198
11374.783147,-4145.153275,-296.082377,-76303.111601
11374.785690,4737.318029,1184.329507,-78448.178995
11374.788233,9622.677246,-1776.494261,-78601.398095
11374.790777,-2664.741391,3256.906145,-76303.111601
11374.793320,740.205942,4737.318029,-78448.178995
11374.795864,5921.647536,296.082377,-77988.521696
11374.798407,-296.082377,-148.041188,-77835.302597
11374.800951,-3256.906145,740.205942,-76915.987999
11374.803494,6957.935855,2664.741391,-77682.083497
11374.806038,3256.906145,2368.659014,-77528.864398
11374.808581,2516.700203,4589.276840,-79061.055394
11374.811125,18801.230927,3849.070898,-79061.055394
11374.813668,8142.265362,7105.977043,-76456.330700
11374.816212,0.000000,9178.553681,-78601.398095
11374.818755,-2516.700203,888.247130,-78907.836294
11374.821299,5329.482782,-296.082377,-77222.426198
11374.823842,-9622.677246,-4145.153275,-75537.016103
11374.826386,-2220.617826,-9178.553681,-77988.521696
11374.828929,-4885.359217,-12287.418637,-78141.740796
11374.831473,-7105.977043,-6365.771101,-76303.111601
11374.834016,-1776.494261,-5329.482782,-77835.302597
11374.836560,-2516.700203,-3849.070898,-75383.797003
11374.839103,-6957.935855,-1332.370696,-78448.178995
11374.841647,-5181.441594,888.247130,-76915.987999
11374.844190,592.164754,-3849.070898,-77988.521696
11374.846734,-4293.194464,-5773.606348,-77682.083497
11374.849277,-6069.688724,-4885.359217,-80593.246390
11374.851821,2960.823768,-5477.523971,-78448.178995
11374.854364,-5033.400406,-444.123565,-76303.111601
11374.856908,-3108.864956,-2516.700203,-79673.931792
11374.859451,2220.617826,-6809.894666,-80440.027290
11374.861995,-4885.359217,-3404.947333,-76609.549800
11374.864538,-15100.201217,-5033.400406,-74311.263306
11374.867082,-9030.512492,-7402.059420,-79673.931792
11374.869625,-6513.812290,-12435.459826,-78141.740796
11374.872168,-4885.359217,-8290.306550,-75843.454302
11374.874718,7254.018232,-1332.370696,-76303.111601
11374.877268,-1776.494261,-1924.535449,-77528.864398
11374.879818,-2072.576638,4737.318029,-76915.987999
11374.882368,8142.265362,4293.194464,-79061.055394
11374.884918,6513.812290,6957.935855,-78448.178995
11374.887468,-2072.576638,5625.565159,-77528.864398
11374.890018,2072.576638,1184.329507,-79214.274493
11374.892568,5921.647536,1036.288319,-78448.178995
11374.895118,0.000000,-444.123565,-76609.549800
11374.897668,2516.700203,296.082377,-79980.369991
11374.900218,9622.677246,-1480.411884,-80286.808190
11374.902768,2072.576638,2516.700203,-76149.892501
11374.905318,-1924.535449,6365.771101,-77069.207099
11374.907868,2516.700203,3552.988522,-77222.426198
11374.910418,2516.700203,-3108.864956,-80286.808190
11374.912968,-3849.070898,5329.482782,-76609.549800
11374.915518,7402.059420,3108.864956,-77835.302597
11374.918068,4441.235652,2960.823768,-76456.330700
11374.920618,5329.482782,4441.235652,-76762.768900
11374.923168,14952.160028,5477.523971,-79673.931792
11374.925718,8142.265362,7698.141797,-75996.673402
11374.928268,-5477.523971,6365.771101,-77835.302597
11374.930818,148.041188,1776.494261,-78294.959896
11374.933368,4885.359217,-5181.441594,-77988.521696
11374.935918,-13027.624579,-7105.977043,-75843.454302
11374.938467,-4589.276840,-9474.636058,-78907.836294
11374.941017,0.000000,-11843.295072,-78294.959896
11374.943567,-7846.182985,-6809.894666,-76149.892501
11374.946117,-3701.029710,-4441.235652,-79520.712692
11374.948667,2368.659014,-1924.535449,-77988.521696
11374.951217,-6513.812290,-1924.535449,-77682.083497
11374.953767,-8882.471304,2368.659014,-75690.235202
11374.956317,1480.411884,-5625.565159,-79367.493593
11374.958867,-2516.700203,-6957.935855,-77988.521696
11374.961417,-6069.688724,-1776.494261,-78448.178995
11374.963967,2812.782580,-5477.523971,-78754.617194
11374.966517,296.082377,-2220.617826,-76762.768900
11374.969067,-4293.194464,-5181.441594,-78601.398095
11374.971617,444.123565,-5181.441594,-79061.055394
11374.974167,-6069.688724,-3404.947333,-75996.673402
11374.976693,-18653.189738,-6365.771101,-75843.454302
11374.979220,-4293.194464,-9918.759623,-80746.465489
11374.981746,1924.535449,-10658.965565,-77222.426198
11374.984272,-296.082377,-3404.947333,-74004.825107
11374.986798,-1776.494261,-740.205942,-78601.398095
11374.989325,5773.606348,1480.411884,-77375.645298
11374.991851,0.000000,5477.523971,-77835.302597
11374.994377,11547.212695,12583.501014,-75077.358804
11374.996904,3701.029710,5033.400406,-78907.836294
11374.999430,592.164754,4145.153275,-77222.426198
11375.001956,1036.288319,1036.288319,-78448.178995
11375.004482,7254.018232,-148.041188,-78754.617194
11375.007009,3997.112087,-2960.823768,-78601.398095
11375.009535,2072.576638,2220.617826,-79367.493593
11375.012061,5181.441594,2220.617826,-79061.055394
11375.014588,2664.741391,3997.112087,-75996.673402
11375.017114,-4885.359217,740.205942,-78448.178995
11375.019640,1332.370696,5181.441594,-77528.864398
11375.022166,3108.864956,-1776.494261,-78141.740796
11375.024693,-3404.947333,6661.853478,-74311.263306
11375.027219,7994.224174,1036.288319,-78907.836294
11375.029745,14508.036463,2664.741391,-76456.330700
11375.032272,2812.782580,4885.359217,-76609.549800
11375.034798,8734.430116,6809.894666,-77988.521696
11375.037324,-592.164754,3701.029710,-77222.426198
11375.039850,-4589.276840,1628.453072,-77069.207099
11375.042377,-4737.318029,-2516.700203,-78448.178995
11375.044903,-2664.741391,-11843.295072,-78754.617194
11375.047429,-8438.347739,-10955.047942,-78141.740796
11375.049956,-4589.276840,-9030.512492,-79827.150892
11375.052482,1184.329507,-8882.471304,-78601.398095
11375.055008,-5033.400406,-5329.482782,-76915.987999
11375.057534,-4589.276840,148.041188,-79061.055394
11375.060061,1776.494261,-2960.823768,-78601.398095
11375.062587,-7846.182985,1332.370696,-74924.139704
11375.065113,-8586.388927,-5033.400406,-75843.454302
11375.067640,3256.906145,-7550.100608,-79520.712692
11375.070166,-1776.494261,-4885.359217,-77069.207099
11375.072692,-5033.400406,-1628.453072,-75230.577904
11375.075218,1036.288319,-6217.729913,-77375.645298
11375.077755,1036.288319,-3108.864956,-75690.235202
11375.080291,-12139.377449,-6069.688724,-78141.740796
11375.082827,-4589.276840,-2812.782580,-77375.645298
11375.085363,-13027.624579,-8290.306550,-75843.454302
11375.087899,-9474.636058,-8882.471304,-77835.302597
11375.090435,3404.947333,-7402.059420,-79214.274493
11375.092971,6069.688724,-2220.617826,-75690.235202
11375.095508,-6661.853478,148.041188,-75690.235202
11375.098044,5921.647536,8586.388927,-78601.398095
11375.100580,9770.718434,5181.441594,-79673.931792
11375.103116,148.041188,11103.089130,-74924.139704
11375.105652,-4145.153275,5625.565159,-77682.083497
11375.108188,6513.812290,1776.494261,-78907.836294
11375.110724,6069.688724,-3404.947333,-78294.959896
11375.113261,1036.288319,1332.370696,-75996.673402
11375.115797,5477.523971,-1924.535449,-81359.341888
11375.118333,4737.318029,1184.329507,-78601.398095
11375.120869,-4737.318029,4737.318029,-76456.330700
11375.123405,-1480.411884,3849.070898,-77069.207099
11375.125941,5033.400406,-3108.864956,-79827.150892
11375.128478,-2220.617826,2072.576638,-79673.931792
11375.131014,3701.029710,5181.441594,-78294.959896
11375.133550,10955.047942,0.000000,-78448.178995
11375.136086,10807.006753,4589.276840,-76609.549800
11375.138622,4885.359217,6217.729913,-77988.521696
11375.141158,11251.130318,7550.100608,-78294.959896
11375.143694,-2812.782580,3404.947333,-77682.083497
11375.146231,-2960.823768,4589.276840,-77682.083497
11375.148767,3404.947333,-5181.441594,-80899.684589
11375.151303,-7105.977043,-7698.141797,-76303.111601
11375.153839,-11399.171507,-9770.718434,-76456.330700
11375.156375,1332.370696,-10955.047942,-79827.150892
11375.158911,-1332.370696,-8882.471304,-77835.302597
11375.161447,-6957.935855,-4441.235652,-76609.549800
11375.163984,-888.247130,-1036.288319,-78754.617194
11375.166520,-444.123565,-1480.411884,-77069.207099
11375.169056,-8438.347739,-740.205942,-75383.797003
11375.171592,-296.082377,-1036.288319,-77222.426198
11375.174128,1332.370696,-7698.141797,-77988.521696
11375.176664,-3404.947333,-4885.359217,-76609.549800
11375.179209,-8586.388927,-3701.029710,-77222.426198
11375.181754,4589.276840,-1184.329507,-77069.207099
11375.184298,-5921.647536,-6365.771101,-76915.987999
11375.186843,-6957.935855,-2960.823768,-78294.959896
11375.189387,-6513.812290,-6957.935855,-79673.931792
11375.191932,-11547.212695,-4885.359217,-75537.016103
11375.194477,-10955.047942,-8586.388927,-79214.274493
11375.197021,10214.842000,-9030.512492,-79980.369991
11375.199566,0.000000,-5033.400406,-76149.892501
11375.202110,-2812.782580,2368.659014,-74311.263306
11375.204655,7698.141797,7105.977043,-78294.959896
11375.207200,7402.059420,7105.977043,-79367.493593
11375.209744,-3849.070898,11695.253884,-75077.358804
11375.212289,4441.235652,5181.441594,-78141.740796
11375.214833,5329.482782,2072.576638,-76609.549800
11375.217378,-2812.782580,-888.247130,-76762.768900
11375.219923,7994.224174,-740.205942,-78448.178995
11375.222467,7402.059420,-1480.411884,-80593.246390
11375.225012,592.164754,4293.194464,-78141.740796
11375.227556,-3701.029710,888.247130,-79520.712692
11375.230101,6365.771101,2960.823768,-78754.617194
11375.232646,-444.123565,-296.082377,-78141.740796
11375.235190,592.164754,2960.823768,-78141.740796
11375.237735,6809.894666,1628.453072,-79673.931792
11375.240279,2516.700203,3552.988522,-76762.768900
11375.242824,7698.141797,4885.359217,-78141.740796
11375.245368,13323.706956,4737.318029,-79061.055394
11375.247913,5773.606348,5921.647536,-76609.549800
11375.250458,-8142.265362,3108.864956,-75537.016103
11375.253002,6957.935855,4589.276840,-78141.740796
11375.255547,-4293.194464,-5329.482782,-77528.864398
11375.258091,-10362.883188,-9770.718434,-76609.549800
11375.260642,-4441.235652,-13175.665768,-77375.645298
11375.263193,-2072.576638,-12435.459826,-76609.549800
11375.265744,-8882.471304,-6217.729913,-76149.892501
11375.268295,-1776.494261,-592.164754,-78141.740796
11375.270846,2072.576638,-1776.494261,-78294.959896
11375.273397,-5329.482782,3108.864956,-75843.454302
11375.275948,-7254.018232,888.247130,-77682.083497
11375.278499,2516.700203,-6217.729913,-78294.959896
11375.281050,-2664.741391,-4885.359217,-76915.987999
11375.283601,-2516.700203,-3404.947333,-80440.027290
11375.286152,2220.617826,-6069.688724,-78601.398095
11375.288703,-4737.318029,-3701.029710,-76915.987999
11375.291254,-11843.295072,-3404.947333,-76762.768900
11375.293805,-3404.947333,-4885.359217,-78601.398095
11375.296355,-12435.459826,-5773.606348,-76915.987999
11375.298906,-12287.418637,-5773.606348,-76915.987999
11375.301457,740.205942,-9326.594869,-80286.808190
11375.304008,4441.235652,-5773.606348,-77528.864398
11375.306559,-8290.306550,-2072.576638,-76609.549800
11375.309110,11399.171507,2516.700203,-78141.740796
11375.311661,3849.070898,5477.523971,-77682.083497
11375.314212,1332.370696,10955.047942,-77069.207099
11375.316763,1184.329507,8438.347739,-79520.712692
11375.319314,6069.688724,1924.535449,-78294.959896
11375.321865,-2812.782580,296.082377,-75996.673402
11375.324416,6069.688724,-1036.288319,-78907.836294
11375.326967,5477.523971,-4589.276840,-77375.645298
11375.329518,2220.617826,-2368.659014,-77835.302597
11375.332069,1332.370696,2812.782580,-78754.617194
11375.334620,1184.329507,3849.070898,-77069.207099
11375.337170,3701.029710,2664.741391,-75843.454302
11375.339721,-3849.070898,2072.576638,-79673.931792
11375.342272,12139.377449,4145.153275,-78601.398095
11375.344823,2516.700203,4145.153275,-76609.549800
11375.347374,6069.688724,5477.523971,-77528.864398
11375.349925,15396.283594,1332.370696,-79673.931792
11375.352476,7550.100608,5477.523971,-77069.207099
11375.355027,-1776.494261,7994.224174,-76149.892501
11375.357578,3256.906145,4441.235652,-79061.055394
11375.360129,1332.370696,888.247130,-77988.521696
11375.362679,-13767.830521,-11399.171507,-76149.892501
11375.365236,-5033.400406,-10362.883188,-75996.673402
11375.367793,-3256.906145,-14656.077652,-76303.111601
11375.370350,-5181.441594,-7550.100608,-76609.549800
11375.372907,-2960.823768,-5477.523971,-79367.493593
11375.375463,444.123565,-1924.535449,-76915.987999
11375.378020,-9474.636058,-888.247130,-75996.673402
11375.380577,-6661.853478,2960.823768,-77988.521696
11375.383134,-1036.288319,-5181.441594,-77682.083497
11375.385691,-1184.329507,-4441.235652,-77835.302597
11375.388248,-4737.318029,-5625.565159,-80593.246390
11375.390804,2960.823768,-4589.276840,-79367.493593
11375.393361,-4293.194464,-3256.906145,-77988.521696
11375.395918,-5477.523971,-5033.400406,-78448.178995
11375.398475,-592.164754,-7402.059420,-80440.027290
11375.401032,-13471.748144,-4737.318029,-77222.426198
11375.403589,-13767.830521,-6513.812290,-75690.235202
11375.406145,-592.164754,-8290.306550,-79520.712692
11375.408702,3256.906145,-7550.100608,-77682.083497
11375.411259,-5033.400406,-3701.029710,-75996.673402
11375.413816,7105.977043,3108.864956,-76762.768900
11375.416373,7846.182985,7105.977043,-75843.454302
11375.418930,3256.906145,10362.883188,-76609.549800
11375.421486,4589.276840,10807.006753,-77988.521696
11375.424043,1924.535449,3404.947333,-77375.645298
11375.426600,-1628.453072,296.082377,-77222.426198
11375.429157,3701.029710,444.123565,-79827.150892
11375.431714,8438.347739,-4737.318029,-79061.055394
11375.434271,2812.782580,-1628.453072,-77528.864398
11375.436828,-592.164754,5625.565159,-79673.931792
11375.439384,6069.688724,1628.453072,-77988.521696
11375.441941,-4441.235652,2368.659014,-75996.673402
11375.444498,3701.029710,4441.235652,-76915.987999
11375.447055,4737.318029,1480.411884,-79061.055394
11375.449612,7698.141797,5773.606348,-75690.235202
11375.452169,1184.329507,3849.070898,-75077.358804
11375.454725,16284.530724,4737.318029,-80133.589091
11375.457282,3849.070898,3552.988522,-78141.740796
11375.459839,-2960.823768,7550.100608,-76149.892501
11375.462396,5033.400406,3108.864956,-78907.836294
11375.464957,1036.288319,2664.741391,-76915.987999
11375.467519,-16284.530724,-10807.006753,-80286.808190
11375.470080,-5773.606348,-11843.295072,-78601.398095
11375.472641,-444.123565,-15692.365970,-77222.426198
11375.475202,-6069.688724,-8290.306550,-76915.987999
11375.477764,-1332.370696,-5921.647536,-80286.808190
11375.480325,1480.411884,-1184.329507,-77375.645298
11375.482886,-7402.059420,-148.041188,-76456.330700
11375.485448,-6513.812290,4737.318029,-77528.864398
11375.488009,740.205942,-5773.606348,-77835.302597
11375.490570,-4885.359217,-6217.729913,-75843.454302
11375.493131,-1924.535449,-5329.482782,-77835.302597
11375.495693,3849.070898,-5033.400406,-79520.712692
11375.498254,-3997.112087,-4441.235652,-77375.645298
11375.500815,-6957.935855,-5033.400406,-77222.426198
11375.503377,-3849.070898,-5329.482782,-77528.864398
11375.505938,-11991.336260,-6069.688724,-77375.645298
11375.508499,-12139.377449,-5477.523971,-78294.959896
11375.511061,4145.153275,-8142.265362,-79520.712692
11375.513622,1036.288319,-5625.565159,-77375.645298
11375.516183,-5921.647536,-3849.070898,-75843.454302
11375.518744,9918.759623,7698.141797,-76609.549800
11375.521306,9474.636058,7550.100608,-80133.589091
11375.523867,3108.864956,12139.377449,-77222.426198
11375.526428,-4885.359217,8438.347739,-78141.740796
11375.528990,9326.594869,3404.947333,-78141.740796
11375.531551,-592.164754,-1332.370696,-76762.768900
11375.534112,2220.617826,-1480.411884,-78754.617194
11375.536674,7402.059420,-4737.318029,-81818.999186
11375.539235,2664.741391,-888.247130,-78141.740796
11375.541796,-3849.070898,8290.306550,-75537.016103
11375.544357,444.123565,-1036.288319,-79061.055394
11375.546919,4885.359217,2664.741391,-75537.016103
11375.549480,-592.164754,2664.741391,-76762.768900
11375.552041,7254.018232,4737.318029,-78601.398095
11375.554603,9030.512492,3552.988522,-77069.207099
11375.557164,5625.565159,3701.029710,-76303.111601
11375.559725,10658.965565,2960.823768,-78907.836294
11375.562287,6069.688724,3404.947333,-78448.178995
11375.564848,-2220.617826,4441.235652,-76149.892501
11375.567413,296.082377,2960.823768,-79520.712692
11375.569978,-5181.441594,-9178.553681,-81052.903688
11375.572543,-9326.594869,-9622.677246,-75843.454302
11375.575108,-8438.347739,-11991.336260,-77988.521696
11375.577673,4441.235652,-13619.789333,-78754.617194
11375.580238,-5773.606348,-7402.059420,-77375.645298
11375.582804,-888.247130,296.082377,-79061.055394
11375.585369,148.041188,-592.164754,-77988.521696
11375.587934,-1628.453072,2368.659014,-75077.358804
11375.590499,-7254.018232,-2220.617826,-77375.645298
11375.593064,4441.235652,-2516.700203,-76915.987999
11375.595629,888.247130,-8734.430116,-77835.302597
11375.598194,-4293.194464,-2812.782580,-75996.673402
11375.600759,-1184.329507,-4293.194464,-79520.712692
11375.603324,-2664.741391,-5477.523971,-76609.549800
11375.605890,-15692.365970,-5625.565159,-77835.302597
11375.608455,-9474.636058,-3997.112087,-79214.274493
11375.611020,-3552.988522,-10362.883188,-77682.083497
11375.613585,-6069.688724,-6365.771101,-77222.426198
11375.616150,1776.494261,-3256.906145,-79827.150892
11375.618715,1332.370696,-7698.141797,-79214.274493
11375.621280,2664.741391,5477.523971,-75077.358804
11375.623845,9030.512492,5329.482782,-79827.150892
11375.626410,6957.935855,12731.542202,-77835.302597
11375.628976,1332.370696,8438.347739,-76609.549800
11375.631541,-1628.453072,6513.812290,-75843.454302
11375.634106,6513.812290,-2516.700203,-79214.274493
11375.636671,3552.988522,-2516.700203,-76762.768900
11375.639236,3256.906145,-3849.070898,-78754.617194
11375.641801,9770.718434,-592.164754,-78754.617194
11375.644366,-2220.617826,3404.947333,-77222.426198
11375.646931,-2960.823768,3849.070898,-76915.987999
11375.649496,6661.853478,3404.947333,-77835.302597
11375.652062,4885.359217,2368.659014,-76762.768900
11375.654627,-888.247130,2812.782580,-77222.426198
11375.657192,13175.665768,2960.823768,-79673.931792
11375.659757,11547.212695,3256.906145,-75383.797003
11375.662322,3256.906145,3404.947333,-75843.454302
11375.664887,3849.070898,6513.812290,-78141.740796
11375.667452,2812.782580,3108.864956,-75843.454302
11375.670020,-1184.329507,4589.276840,-76609.549800
11375.672587,-6957.935855,-4441.235652,-78907.836294
11375.675155,-888.247130,-12583.501014,-77682.083497
11375.677723,-7698.141797,-13767.830521,-76149.892501
11375.680290,-5773.606348,-8438.347739,-78448.178995
11375.682858,1480.411884,-9178.553681,-80746.465489
11375.685426,-2664.741391,-1036.288319,-77375.645298
11375.687993,-7105.977043,3404.947333,-78907.836294
11375.690561,-148.041188,1924.535449,-77682.083497
11375.693128,-3997.112087,148.041188,-77835.302597
11375.695696,-4589.276840,-3552.988522,-79673.931792
11375.698264,-592.164754,-5033.400406,-77835.302597
11375.700831,1776.494261,-7550.100608,-77835.302597
11375.703399,-7846.182985,-3701.029710,-76303.111601
11375.705967,-2368.659014,-6957.935855,-79367.493593
11375.708534,-7994.224174,-6513.812290,-76149.892501
11375.711102,-17468.860231,-4885.359217,-75843.454302
11375.713669,-1924.535449,-6217.729913,-78907.836294
11375.716237,-888.247130,-7846.182985,-77375.645298
11375.718805,-4441.235652,-3997.112087,-77222.426198
11375.721372,-2072.576638,-4293.194464,-78294.959896
11375.723940,15840.407159,5181.441594,-77069.207099
11375.726508,2516.700203,8438.347739,-77528.864398
11375.729075,2960.823768,14359.995275,-79367.493593
11375.731643,4737.318029,4145.153275,-79520.712692
11375.734210,-296.082377,5773.606348,-74311.263306
11375.736778,148.041188,296.082377,-77988.521696
11375.739346,10510.924376,-6069.688724,-78601.398095
11375.741913,444.123565,-2368.659014,-77375.645298
11375.744481,-3108.864956,3552.988522,-77222.426198
11375.747048,0.000000,2220.617826,-78754.617194
11375.749616,1924.535449,2664.741391,-75383.797003
11375.752184,-1776.494261,3552.988522,-75996.673402
11375.754751,7254.018232,3849.070898,-78601.398095
11375.757319,4441.235652,4737.318029,-78141.740796
11375.759887,6513.812290,4737.318029,-76762.768900
11375.762454,12879.583391,3108.864956,-78754.617194
11375.765022,4885.359217,3701.029710,-76762.768900
11375.767589,-2072.576638,5921.647536,-75077.358804
11375.770157,3256.906145,4293.194464,-79520.712692
11375.772727,888.247130,-444.123565,-77988.521696
11375.775297,-15840.407159,-10807.006753,-77528.864398
11375.777867,-5329.482782,-11991.336260,-78141.740796
11375.780437,-1924.535449,-17320.819043,-77835.302597
11375.783007,-6217.729913,-7994.224174,-75843.454302
11375.785576,-888.247130,-5773.606348,-79980.369991
11375.788146,2812.782580,-2072.576638,-79520.712692
11375.790716,-3997.112087,1628.453072,-75996.673402
11375.793286,-12435.459826,4145.153275,-77222.426198
11375.795856,3108.864956,-6513.812290,-79980.369991
11375.798426,-1184.329507,-5033.400406,-77682.083497
11375.800996,-888.247130,-3552.988522,-76915.987999
11375.803566,3108.864956,-5921.647536,-79367.493593
11375.806136,-3404.947333,-4293.194464,-77682.083497
11375.808705,-12731.542202,-8290.306550,-78294.959896
11375.811275,-4145.153275,-4589.276840,-78601.398095
11375.813845,-7550.100608,-7846.182985,-76456.330700
11375.816415,-5181.441594,-4589.276840,-75537.016103
11375.818985,2812.782580,-5477.523971,-80286.808190
11375.821555,-1332.370696,-7550.100608,-77222.426198
11375.824125,444.123565,2960.823768,-74924.139704
11375.826695,10362.883188,6513.812290,-78448.178995
11375.829265,7846.182985,11547.212695,-76456.330700
11375.831835,-4441.235652,10066.800811,-77835.302597
11375.834404,-296.082377,5921.647536,-78907.836294
11375.836974,6513.812290,-1036.288319,-77682.083497
11375.839544,1480.411884,-2664.741391,-77222.426198
11375.842114,4885.359217,-1776.494261,-80593.246390
11375.844684,9622.677246,-6365.771101,-80133.589091
11375.847254,-2960.823768,2812.782580,-77222.426198
11375.849824,-3108.864956,4885.359217,-78448.178995
11375.852394,8290.306550,-148.041188,-79214.274493
11375.854964,1628.453072,2516.700203,-78907.836294
11375.857533,444.123565,5773.606348,-77069.207099
11375.860103,14211.954086,3256.906145,-79827.150892
11375.862673,11103.089130,5329.482782,-75690.235202
11375.865243,-296.082377,2960.823768,-76303.111601
11375.867813,3849.070898,3701.029710,-77835.302597
11375.870383,1776.494261,6069.688724,-75383.797003
11375.872953,-1924.535449,4441.235652,-76762.768900
11375.875525,-6661.853478,-7994.224174,-78907.836294
11375.878097,-5181.441594,-14063.912898,-79214.274493
11375.880669,-10510.924376,-11399.171507,-74770.920605
11375.883241,-1776.494261,-9622.677246,-77682.083497
11375.885813,740.205942,-8142.265362,-79980.369991
11375.888385,-5477.523971,1184.329507,-78141.740796
11375.890957,-1628.453072,2072.576638,-78294.959896
11375.893529,-3404.947333,2368.659014,-76456.330700
11375.896101,-4589.276840,-592.164754,-76762.768900
11375.898673,2516.700203,-8142.265362,-80440.027290
11375.901245,1480.411884,-8142.265362,-80593.246390
11375.903817,296.082377,-4441.235652,-76149.892501
11375.906389,-12731.542202,-6513.812290,-78141.740796
11375.908961,-1480.411884,-5625.565159,-77682.083497
11375.911533,-11251.130318,-7402.059420,-76915.987999
11375.914105,-12435.459826,-4737.318029,-77682.083497
11375.916677,1332.370696,-7698.141797,-79367.493593
11375.919249,444.123565,-5329.482782,-78141.740796
11375.921821,-7994.224174,-2812.782580,-79061.055394
11375.924393,10955.047942,4145.153275,-76303.111601
11375.926965,9326.594869,4293.194464,-76609.549800
11375.929537,1924.535449,13323.706956,-77069.207099
11375.932109,444.123565,7254.018232,-79673.931792
11375.934681,5477.523971,5921.647536,-75690.235202
11375.937253,-3552.988522,1184.329507,-75230.577904
11375.939825,1628.453072,-1184.329507,-76915.987999
11375.942397,9474.636058,-3256.906145,-79827.150892
11375.944969,4441.235652,148.041188,-78141.740796
11375.947541,-6069.688724,1628.453072,-80133.589091
11375.950113,-3701.029710,4293.194464,-77375.645298
11375.952685,7254.018232,888.247130,-75690.235202
11375.955257,-5329.482782,5181.441594,-75843.454302
11375.957829,13175.665768,5033.400406,-80286.808190
11375.960401,10807.006753,4293.194464,-78141.740796
11375.962973,4737.318029,5773.606348,-75537.016103
11375.965545,6513.812290,2812.782580,-79214.274493
11375.968117,1924.535449,3849.070898,-76456.330700
11375.970689,-444.123565,5625.565159,-76303.111601
11375.973261,-10362.883188,-888.247130,-79367.493593
11375.975833,-3404.947333,-11399.171507,-80133.589091
11375.978378,-11843.295072,-15692.365970,-77835.302597
11375.980922,-2516.700203,-11991.336260,-77682.083497
11375.983467,740.205942,-11991.336260,-79214.274493
11375.986012,-3404.947333,-2368.659014,-77528.864398
11375.988556,-3997.112087,1184.329507,-79520.712692
11375.991101,0.000000,1036.288319,-77069.207099
11375.993645,-7994.224174,444.123565,-75996.673402
11375.996190,-1776.494261,-2812.782580,-76149.892501
11375.998734,1480.411884,-7254.018232,-78601.398095
11376.001279,1332.370696,-4441.235652,-77222.426198
11376.003823,-8734.430116,-4885.359217,-77528.864398
11376.006368,-2368.659014,-5921.647536,-77069.207099
11376.008912,-10066.800811,-7698.141797,-77069.207099
11376.011457,-15988.448347,-5329.482782,-75537.016103
11376.014002,-2664.741391,-7846.182985,-78754.617194
11376.016546,-296.082377,-3997.112087,-76609.549800
11376.019091,-7994.224174,-3849.070898,-77682.083497
11376.021635,3404.947333,-2220.617826,-78601.398095
11376.024180,13471.748144,3997.112087,-76762.768900
11376.026724,3552.988522,9178.553681,-77222.426198
11376.029269,4145.153275,13619.789333,-80440.027290
11376.031813,1776.494261,5477.523971,-78754.617194
11376.034358,296.082377,4145.153275,-75537.016103
11376.036902,2960.823768,-1628.453072,-78754.617194
11376.039447,7402.059420,-2812.782580,-78754.617194
11376.041992,7698.141797,-5921.647536,-79061.055394
11376.044536,-3256.906145,4293.194464,-77682.083497
11376.047081,3849.070898,3256.906145,-78601.398095
11376.049625,1776.494261,3552.988522,-77375.645298
11376.052170,-1036.288319,2812.782580,-77988.521696
11376.054714,10658.965565,5181.441594,-78601.398095
11376.057259,7994.224174,5477.523971,-77222.426198
11376.059803,7994.224174,6217.729913,-78294.959896
11376.062348,5033.400406,5033.400406,-78448.178995
11376.064892,4145.153275,1184.329507,-77528.864398
11376.067437,-3552.988522,6957.935855,-75077.358804
11376.069981,4737.318029,3108.864956,-77682.083497
11376.072526,-10066.800811,-8290.306550,-77682.083497
11376.075071,-13915.871710,-11695.253884,-77222.426198
11376.077615,-5329.482782,-15100.201217,-77988.521696
11376.080166,1184.329507,-10658.965565,-76609.549800
11376.082717,-9030.512492,-8734.430116,-76456.330700
11376.085269,-1776.494261,2220.617826,-78907.836294
11376.087820,-1628.453072,-148.041188,-79214.274493
11376.090371,-6661.853478,1036.288319,-75077.358804
11376.092922,-2516.700203,444.123565,-79061.055394
11376.095473,4737.318029,-5181.441594,-79061.055394
11376.098025,-4145.153275,-9622.677246,-79673.931792
11376.100576,-2516.700203,-4441.235652,-77682.083497
11376.103127,-444.123565,-7550.100608,-78907.836294
11376.105678,-9918.759623,-5773.606348,-77682.083497
11376.108229,-18357.107362,-7402.059420,-77528.864398
11376.110780,-2812.782580,-4885.359217,-77835.302597
11376.113332,-1628.453072,-7846.182985,-76149.892501
11376.115883,-1924.535449,-2072.576638,-76609.549800
11376.118434,0.000000,-6365.771101,-79214.274493
11376.120985,13027.624579,3552.988522,-76456.330700
11376.123536,1776.494261,7698.141797,-77069.207099
11376.126088,11695.253884,13767.830521,-77069.207099
11376.128639,-1332.370696,7994.224174,-78294.959896
11376.131190,-592.164754,6217.729913,-75690.235202
11376.133741,1924.535449,-444.123565,-77835.302597
11376.136292,8142.265362,-3404.947333,-77528.864398
11376.138843,2072.576638,-5329.482782,-78907.836294
11376.141395,296.082377,2812.782580,-78907.836294
11376.143946,4589.276840,-1776.494261,-77528.864398
11376.146497,-4885.359217,3108.864956,-77222.426198
11376.149048,4441.235652,6513.812290,-78294.959896
11376.151599,8290.306550,1332.370696,-78907.836294
11376.154151,7846.182985,6957.935855,-77222.426198
11376.156702,7402.059420,4441.235652,-78448.178995
11376.159253,9030.512492,4293.194464,-78294.959896
11376.161804,1776.494261,2664.741391,-77528.864398
11376.164355,-3256.906145,6661.853478,-77988.521696
11376.166906,8438.347739,3849.070898,-78448.178995
11376.169458,-10066.800811,-8586.388927,-77835.302597
11376.172009,-13619.789333,-9178.553681,-77835.302597
11376.174560,-1332.370696,-16432.571912,-78754.617194
11376.177111,1332.370696,-11547.212695,-76609.549800
11376.179662,-8586.388927,-7550.100608,-77222.426198
11376.182218,1480.411884,2368.659014,-77988.521696
11376.184775,0.000000,-1184.329507,-77375.645298
11376.187331,-13175.665768,4293.194464,-76303.111601
11376.189887,-1924.535449,-2664.741391,-77835.302597
11376.192443,4589.276840,-5329.482782,-77069.207099
11376.194999,-4293.194464,-5329.482782,-76456.330700
11376.197555,-1480.411884,-7402.059420,-79980.369991
11376.200111,1628.453072,-6069.688724,-78601.398095
11376.202667,-11843.295072,-6365.771101,-77222.426198
11376.205223,-15248.242405,-5625.565159,-77682.083497
11376.207779,-1036.288319,-8142.265362,-79827.150892
11376.210336,-2664.741391,-5921.647536,-77375.645298
11376.212892,-1480.411884,-2220.617826,-79827.150892
11376.215448,3256.906145,-7254.018232,-80286.808190
11376.218004,7402.059420,5329.482782,-76609.549800
11376.220560,4589.276840,7254.018232,-79520.712692
11376.223116,6661.853478,13767.830521,-78907.836294
11376.225672,1332.370696,7550.100608,-76456.330700
11376.228228,-1628.453072,3997.112087,-75383.797003
11376.230784,4441.235652,-1480.411884,-77528.864398
11376.233340,5181.441594,-1924.535449,-76149.892501
11376.235897,4293.194464,-5181.441594,-78294.959896
11376.238453,5477.523971,2220.617826,-78141.740796
11376.241009,-444.123565,444.123565,-76609.549800
11376.243565,-1036.288319,2960.823768,-77222.426198
11376.246121,4737.318029,6661.853478,-79214.274493
11376.248677,9326.594869,2960.823768,-79673.931792
11376.251233,6069.688724,5033.400406,-75843.454302
11376.253789,11103.089130,6957.935855,-77682.083497
11376.256345,8882.471304,3997.112087,-78601.398095
11376.258901,-3256.906145,2960.823768,-77682.083497
11376.261458,2664.741391,7254.018232,-77069.207099
11376.264014,4145.153275,-1332.370696,-78141.740796
11376.266570,-11399.171507,-9622.677246,-77222.426198
11376.269126,-13323.706956,-11547.212695,-76915.987999
11376.271682,296.082377,-17616.901420,-80133.589091
11376.274238,-3256.906145,-6957.935855,-76149.892501
11376.276794,-7254.018232,-5773.606348,-78294.959896
11376.279350,5033.400406,-296.082377,-79214.274493
11376.281906,-3256.906145,-740.205942,-78754.617194
11376.284467,-10066.800811,3256.906145,-77222.426198
11376.287027,-740.205942,-1628.453072,-78754.617194
11376.289588,6217.729913,-7550.100608,-77835.302597
11376.292148,-4145.153275,-7550.100608,-76456.330700
11376.294709,-2960.823768,-3701.029710,-77375.645298
11376.297269,-3256.906145,-12435.459826,-79061.055394
11376.299830,-14804.118840,-6069.688724,-75077.358804
11376.302390,-11399.171507,-8586.388927,-78294.959896
11376.304951,0.000000,-6217.729913,-75843.454302
11376.307511,-6217.729913,-5773.606348,-76762.768900
11376.310071,592.164754,-3849.070898,-79520.712692
11376.312632,11251.130318,-592.164754,-76456.330700
11376.315192,9178.553681,6365.771101,-77375.645298
11376.317753,3701.029710,13027.624579,-78907.836294
11376.320313,6069.688724,10807.006753,-78907.836294
11376.322874,-888.247130,5181.441594,-76915.987999
11376.325434,-1036.288319,5181.441594,-77988.521696
11376.327995,9326.594869,-5477.523971,-79673.931792
11376.330555,1776.494261,888.247130,-77988.521696
11376.333116,3108.864956,296.082377,-80593.246390
11376.335676,296.082377,-148.041188,-77988.521696
11376.338237,-2664.741391,2368.659014,-76303.111601
11376.340797,-740.205942,2812.782580,-74311.263306
11376.343357,6069.688724,6661.853478,-77988.521696
11376.345918,10510.924376,3997.112087,-78294.959896
11376.348478,7846.182985,5477.523971,-78141.740796
11376.351039,13175.665768,5625.565159,-77835.302597
11376.353599,2220.617826,4441.235652,-75383.797003
11376.356160,1332.370696,4737.318029,-76303.111601
11376.358720,-5181.441594,2368.659014,-76149.892501
11376.361281,-6069.688724,-9770.718434,-78754.617194
11376.363841,-9178.553681,-13323.706956,-75996.673402
11376.366402,-8438.347739,-15396.283594,-76456.330700
11376.368962,1480.411884,-9030.512492,-77528.864398
11376.371523,-2368.659014,-5773.606348,-77528.864398
11376.374083,-6365.771101,0.000000,-76762.768900
11376.376643,-1332.370696,2368.659014,-77988.521696
11376.379204,-5181.441594,-592.164754,-74770.920605
11376.381764,-1924.535449,-592.164754,-77222.426198
11376.384325,-1924.535449,-5181.441594,-80440.027290
11376.386886,4293.194464,-6069.688724,-78754.617194
11376.389450,-7698.141797,-8734.430116,-78754.617194
11376.392014,-4589.276840,-4589.276840,-78294.959896
11376.394578,-7994.224174,-10362.883188,-78907.836294
11376.397142,-17024.736666,-7994.224174,-75230.577904
11376.399706,-2812.782580,-6513.812290,-79214.274493
11376.402270,3552.988522,-7254.018232,-77682.083497
11376.404834,-3997.112087,-3701.029710,-77682.083497
11376.407398,3404.947333,2220.617826,-78141.740796
11376.409962,12583.501014,4441.235652,-79367.493593
11376.412526,7254.018232,11991.336260,-76456.330700
11376.415090,-4589.276840,13915.871710,-77835.302597
11376.417654,8438.347739,5625.565159,-78907.836294
11376.420217,1924.535449,0.000000,-76456.330700
11376.422781,1332.370696,-740.205942,-76762.768900
11376.425345,7254.018232,-1480.411884,-78754.617194
11376.427909,6365.771101,-1332.370696,-77988.521696
11376.430473,-4737.318029,1628.453072,-76609.549800
11376.433037,-444.123565,3997.112087,-75383.797003
11376.435601,5625.565159,3701.029710,-76915.987999
11376.438165,-444.123565,3404.947333,-79520.712692
11376.440729,11547.212695,9474.636058,-78294.959896
11376.443293,13619.789333,3552.988522,-77069.207099
11376.445857,3997.112087,6513.812290,-75996.673402
11376.448421,-2516.700203,6217.729913,-78907.836294
11376.450985,6957.935855,1184.329507,-78294.959896
11376.453549,444.123565,2220.617826,-77682.083497
11376.456113,-14656.077652,-7402.059420,-79367.493593
11376.458676,-2960.823768,-12435.459826,-78141.740796
11376.461240,-9030.512492,-18505.148550,-78448.178995
11376.463804,-2812.782580,-9030.512492,-78141.740796
11376.466368,1184.329507,-8438.347739,-79827.150892
11376.468932,-2516.700203,444.123565,-76915.987999
11376.471496,-7994.224174,1036.288319,-76762.768900
11376.474060,-3256.906145,1924.535449,-76915.987999
11376.476624,-2960.823768,-3552.988522,-76609.549800
11376.479188,-888.247130,-5773.606348,-78601.398095
11376.481752,1184.329507,-5773.606348,-78907.836294
11376.484316,-2516.700203,-5625.565159,-75383.797003
11376.486880,-13027.624579,-8438.347739,-77682.083497
11376.489447,-5477.523971,-5477.523971,-75843.454302
11376.492014,-11695.253884,-9326.594869,-78141.740796
11376.494581,-4441.235652,-3552.988522,-76609.549800
11376.497149,-444.123565,-5033.400406,-78601.398095
11376.499716,3552.988522,-7105.977043,-78907.836294
11376.502283,1776.494261,3404.947333,-76609.549800
11376.504850,12287.418637,7254.018232,-78141.740796
11376.507417,7105.977043,8438.347739,-78601.398095
11376.509985,-2516.700203,12879.583391,-77528.864398
11376.512552,1924.535449,7402.059420,-79367.493593
11376.515119,7105.977043,-1480.411884,-77528.864398
11376.517686,3552.988522,-2960.823768,-76915.987999
11376.520253,1332.370696,444.123565,-80899.684589
11376.522821,7994.224174,-3404.947333,-82125.437386
11376.525388,-3849.070898,2368.659014,-75996.673402
11376.527955,-2072.576638,6069.688724,-75996.673402
11376.530522,4145.153275,2516.700203,-79214.274493
11376.533089,9326.594869,7698.141797,-79061.055394
11376.535657,2220.617826,5921.647536,-79673.931792
11376.538224,20577.725188,6661.853478,-77528.864398
11376.540791,3256.906145,1184.329507,-77682.083497
11376.543358,-1924.535449,3701.029710,-74770.920605
11376.545925,2220.617826,4737.318029,-77682.083497
11376.548493,2072.576638,-2072.576638,-77375.645298
11376.551060,-16284.530724,-10066.800811,-78141.740796
11376.553627,-6957.935855,-10362.883188,-77375.645298
11376.556194,-3849.070898,-19541.436869,-77222.426198
11376.558761,-5773.606348,-6957.935855,-75996.673402
11376.561329,-888.247130,-5625.565159,-79367.493593
11376.563896,2960.823768,-296.082377,-79520.712692
11376.566463,-8586.388927,2516.700203,-77069.207099
11376.569030,-9178.553681,-2072.576638,-77988.521696
11376.571600,2516.700203,-740.205942,-78448.178995
11376.574169,3552.988522,-7105.977043,-78754.617194
11376.576739,-4737.318029,-4737.318029,-80286.808190
11376.579308,1332.370696,-8290.306550,-78294.959896
11376.581877,-11991.336260,-9030.512492,-77222.426198
11376.584447,-16580.613101,-6809.894666,-76762.768900
11376.587016,-4737.318029,-7402.059420,-77682.083497
11376.589586,1480.411884,-5921.647536,-76303.111601
11376.592155,-5181.441594,-3997.112087,-77835.302597
11376.594725,4589.276840,-4589.276840,-78907.836294
11376.597294,11991.336260,5181.441594,-75690.235202
11376.599864,5477.523971,8882.471304,-77835.302597
11376.602433,7402.059420,14359.995275,-78141.740796
11376.605002,-296.082377,7698.141797,-77528.864398
11376.607572,-1036.288319,2664.741391,-76149.892501
11376.610141,2812.782580,-1036.288319,-77528.864398
11376.612711,6957.935855,-1776.494261,-77375.645298
11376.615280,2960.823768,-1924.535449,-78754.617194
11376.617850,-1036.288319,-1628.453072,-79827.150892
11376.620419,3108.864956,3997.112087,-77069.207099
11376.622989,-2960.823768,1924.535449,-75843.454302
11376.625558,888.247130,5329.482782,-76762.768900
11376.628127,15248.242405,3997.112087,-79520.712692
11376.630697,10214.842000,6513.812290,-77375.645298
11376.633266,4589.276840,6365.771101,-77069.207099
11376.635836,3997.112087,4441.235652,-79673.931792
11376.638405,2368.659014,2960.823768,-77222.426198
11376.640975,-3108.864956,3552.988522,-76915.987999
11376.643544,-4737.318029,-7994.224174,-79061.055394
11376.646114,-8142.265362,-13027.624579,-77069.207099
11376.648683,-11547.212695,-14508.036463,-77835.302597
11376.651252,4885.359217,-8882.471304,-78448.178995
11376.653822,148.041188,-10362.883188,-78754.617194
11376.656391,-7550.100608,1332.370696,-77069.207099
11376.658961,-3108.864956,2960.823768,-79061.055394
11376.661530,-2220.617826,-2664.741391,-74311.263306
11376.664100,-7105.977043,-1036.288319,-74464.482406
11376.666669,2516.700203,-6513.812290,-79980.369991
11376.669238,1924.535449,-5773.606348,-77988.521696
11376.671808,-7994.224174,-7402.059420,-75537.016103
11376.674377,-9622.677246,-8586.388927,-77528.864398
11376.676947,-8882.471304,-8290.306550,-77528.864398
11376.679516,-11843.295072,-7550.100608,-75230.577904
11376.682086,-5033.400406,-3997.112087,-79367.493593
