#time,accel_x,accel_y,accel_z
11241.634891,296.082377,-592.164754,-79061.055394
11241.637508,5033.400406,-1036.288319,-77835.302597
11241.640126,-2960.823768,-2072.576638,-76915.987999
11241.642744,-2516.700203,444.123565,-77988.521696
11241.645362,3256.906145,2960.823768,-77528.864398
11241.647979,3108.864956,-4737.318029,-77222.426198
11241.650597,-4589.276840,-888.247130,-76609.549800
11241.653215,2664.741391,-2664.741391,-78294.959896
11241.655833,2516.700203,-1480.411884,-75843.454302
11241.658450,-4145.153275,-5773.606348,-76609.549800
11241.661068,6365.771101,-6957.935855,-79061.055394
11241.663686,7105.977043,-888.247130,-75690.235202
11241.666303,-1036.288319,-2812.782580,-78294.959896
11241.668921,1184.329507,-1036.288319,-78601.398095
11241.671539,4885.359217,-4885.359217,-78448.178995
11241.674157,-1776.494261,-1628.453072,-75690.235202
11241.676774,2812.782580,-5181.441594,-78754.617194
11241.679392,5625.565159,-6513.812290,-77682.083497
11241.682010,-2960.823768,-1776.494261,-77682.083497
11241.684628,-2072.576638,5181.441594,-79061.055394
11241.687245,888.247130,-888.247130,-78141.740796
11241.689863,-10066.800811,3849.070898,-76915.987999
11241.692481,-7698.141797,4293.194464,-78294.959896
11241.695099,3256.906145,1036.288319,-79520.712692
11241.697716,1924.535449,1332.370696,-76762.768900
11241.700334,-6365.771101,-2220.617826,-77375.645298
11241.702952,148.041188,-3701.029710,-79673.931792
11241.705569,-2072.576638,-148.041188,-75843.454302
11241.708187,-6069.688724,3256.906145,-76609.549800
11241.710805,4885.359217,2220.617826,-79214.274493
11241.713423,-2368.659014,-592.164754,-77988.521696
11241.716040,-5181.441594,2812.782580,-75230.577904
11241.718658,-592.164754,-148.041188,-78601.398095
11241.721276,2368.659014,-2368.659014,-76609.549800
11241.723745,-4737.318029,-592.164754,-75690.235202
11241.726215,296.082377,-4441.235652,-78448.178995
11241.728684,3997.112087,4589.276840,-76456.330700
11241.731153,-6809.894666,1628.453072,-75230.577904
11241.733622,-3552.988522,4737.318029,-78448.178995
11241.736092,1776.494261,-740.205942,-77069.207099
11241.738561,-9474.636058,740.205942,-77222.426198
11241.741030,-6809.894666,3404.947333,-77528.864398
11241.743500,148.041188,-296.082377,-80133.589091
11241.745969,-3404.947333,1776.494261,-75230.577904
11241.748438,-1776.494261,1924.535449,-78294.959896
11241.750908,5477.523971,-3256.906145,-79367.493593
11241.753377,-4589.276840,3256.906145,-76456.330700
11241.755846,-10807.006753,3108.864956,-79061.055394
11241.758315,4737.318029,6957.935855,-77528.864398
11241.760785,9622.677246,-4737.318029,-78141.740796
11241.763254,-7105.977043,-1924.535449,-75537.016103
11241.765723,8142.265362,-148.041188,-77682.083497
11241.768193,1184.329507,-3997.112087,-77682.083497
11241.770662,-7994.224174,-1332.370696,-77222.426198
11241.773131,-4737.318029,296.082377,-79980.369991
11241.775601,5625.565159,-5181.441594,-79061.055394
11241.778070,6513.812290,-2368.659014,-77375.645298
11241.780539,-3552.988522,-1480.411884,-78448.178995
11241.783008,5329.482782,-7254.018232,-79214.274493
11241.785478,5477.523971,-6217.729913,-77835.302597
11241.787947,-4145.153275,-7550.100608,-75077.358804
11241.790416,4441.235652,888.247130,-77682.083497
11241.792886,3701.029710,-5625.565159,-77069.207099
11241.795355,-2368.659014,-592.164754,-76609.549800
11241.797824,4737.318029,-2664.741391,-78907.836294
11241.800294,-444.123565,-1036.288319,-76303.111601
11241.802763,0.000000,-4293.194464,-76762.768900
11241.805232,-4885.359217,-7550.100608,-79673.931792
11241.807702,7254.018232,-6661.853478,-77069.207099
11241.810171,-1776.494261,-2812.782580,-76915.987999
11241.812640,-2072.576638,1628.453072,-79367.493593
11241.815109,7402.059420,-4589.276840,-80440.027290
11241.817579,-3997.112087,0.000000,-75230.577904
11241.820048,444.123565,-296.082377,-76762.768900
11241.822568,7254.018232,-4145.153275,-79367.493593
11241.825087,-3701.029710,-6069.688724,-77222.426198
11241.827607,-3849.070898,-8290.306550,-77069.207099
11241.830126,9622.677246,-3404.947333,-77528.864398
11241.832646,8142.265362,-5921.647536,-76915.987999
11241.835165,2664.741391,-444.123565,-76303.111601
11241.837685,5329.482782,-4145.153275,-79520.712692
11241.840205,1776.494261,3404.947333,-75537.016103
11241.842724,-3997.112087,-444.123565,-77682.083497
11241.845244,7994.224174,-4885.359217,-79367.493593
11241.847763,6957.935855,-5773.606348,-75077.358804
11241.850283,-4293.194464,-5477.523971,-77528.864398
11241.852802,2516.700203,-2812.782580,-79061.055394
11241.855322,2072.576638,-6809.894666,-79367.493593
11241.857841,-10658.965565,-1776.494261,-75690.235202
11241.860361,2368.659014,3404.947333,-79214.274493
11241.862881,6217.729913,-2368.659014,-77988.521696
11241.865400,-7105.977043,7402.059420,-76762.768900
11241.867920,-5625.565159,1036.288319,-78448.178995
11241.870439,3108.864956,-740.205942,-76915.987999
11241.872959,888.247130,888.247130,-78448.178995
11241.875478,-5625.565159,-148.041188,-77069.207099
11241.877998,6957.935855,592.164754,-79520.712692
11241.880518,-3404.947333,-4441.235652,-78141.740796
11241.883037,-8142.265362,2072.576638,-77682.083497
11241.885557,-444.123565,2220.617826,-79520.712692
11241.888076,-5181.441594,6809.894666,-75843.454302
11241.890596,-4441.235652,2812.782580,-79214.274493
11241.893115,3404.947333,1332.370696,-79061.055394
11241.895635,3849.070898,-592.164754,-75843.454302
11241.898154,-7698.141797,148.041188,-76303.111601
11241.900674,1480.411884,-592.164754,-79061.055394
11241.903194,444.123565,-3404.947333,-77375.645298
11241.905713,-8438.347739,592.164754,-75383.797003
11241.908233,1332.370696,3701.029710,-79061.055394
11241.910752,2072.576638,-2516.700203,-78601.398095
11241.913272,-3404.947333,740.205942,-76762.768900
11241.915791,148.041188,2960.823768,-76149.892501
11241.918311,148.041188,-2368.659014,-79214.274493
11241.920830,-592.164754,4441.235652,-78141.740796
11241.923383,-8586.388927,888.247130,-78141.740796
11241.925936,3997.112087,5329.482782,-77222.426198
11241.928489,-10066.800811,3108.864956,-77528.864398
11241.931042,-8734.430116,2812.782580,-78754.617194
11241.933595,-296.082377,2664.741391,-78601.398095
11241.936148,-4737.318029,2960.823768,-77222.426198
11241.938701,-1924.535449,148.041188,-76762.768900
11241.941254,2220.617826,-1480.411884,-78907.836294
11241.943806,-4885.359217,148.041188,-75996.673402
11241.946359,-13323.706956,3701.029710,-76149.892501
11241.948912,1184.329507,3552.988522,-79214.274493
11241.951465,5773.606348,-1480.411884,-77682.083497
11241.954018,-3404.947333,3849.070898,-76456.330700
11241.956571,5625.565159,-1776.494261,-79061.055394
11241.959124,2812.782580,-2812.782580,-76149.892501
11241.961677,-7698.141797,-3108.864956,-77375.645298
11241.964229,-3108.864956,-148.041188,-78601.398095
11241.966782,6809.894666,-10066.800811,-80899.684589
11241.969335,4441.235652,-4441.235652,-76609.549800
11241.971888,-1036.288319,-1924.535449,-78907.836294
11241.974441,9622.677246,-3404.947333,-79980.369991
11241.976994,-1776.494261,-5033.400406,-78141.740796
11241.979547,1332.370696,-2516.700203,-77835.302597
11241.982100,6957.935855,-3108.864956,-78294.959896
11241.984653,5181.441594,-7105.977043,-76303.111601
11241.987205,-1924.535449,-1924.535449,-76303.111601
11241.989758,3404.947333,-6069.688724,-80593.246390
11241.992311,2664.741391,-444.123565,-75537.016103
11241.994864,-1628.453072,-1924.535449,-75843.454302
11241.997417,2516.700203,-4589.276840,-78754.617194
11241.999970,2368.659014,-2072.576638,-76609.549800
11242.002523,-4737.318029,-5477.523971,-77528.864398
11242.005076,3701.029710,1924.535449,-78448.178995
11242.007629,4737.318029,-3552.988522,-79673.931792
11242.010181,-3701.029710,-3404.947333,-76303.111601
11242.012734,-3404.947333,-1332.370696,-77682.083497
11242.015287,7846.182985,-3701.029710,-77528.864398
11242.017840,-4737.318029,-5329.482782,-77222.426198
11242.020393,5329.482782,-5477.523971,-80286.808190
11242.022946,9326.594869,-7402.059420,-78294.959896
11242.025517,1036.288319,-3256.906145,-75537.016103
11242.028089,5477.523971,148.041188,-78448.178995
11242.030660,5773.606348,-2072.576638,-78754.617194
11242.033232,5181.441594,-1924.535449,-75537.016103
11242.035803,-740.205942,-5329.482782,-77835.302597
11242.038375,8290.306550,-3701.029710,-78448.178995
11242.040946,-148.041188,-4737.318029,-77222.426198
11242.043517,-3552.988522,-1480.411884,-77069.207099
11242.046089,5329.482782,-6809.894666,-80286.808190
11242.048660,-3701.029710,-148.041188,-76609.549800
11242.051232,-3552.988522,0.000000,-75996.673402
11242.053803,296.082377,-592.164754,-79827.150892
11242.056375,-2960.823768,8290.306550,-76762.768900
11242.058946,-6513.812290,2368.659014,-76149.892501
11242.061518,0.000000,592.164754,-78907.836294
11242.064089,4885.359217,-2960.823768,-76915.987999
11242.066661,-8142.265362,-296.082377,-76303.111601
11242.069232,3849.070898,2812.782580,-78754.617194
11242.071803,-1036.288319,-5625.565159,-77375.645298
11242.074375,-7698.141797,-1184.329507,-76303.111601
11242.076946,-6661.853478,3404.947333,-78294.959896
11242.079518,2664.741391,3849.070898,-78907.836294
11242.082089,1332.370696,6661.853478,-76609.549800
11242.084661,-7846.182985,444.123565,-79367.493593
11242.087232,5329.482782,2664.741391,-77375.645298
11242.089804,-296.082377,-1776.494261,-77528.864398
11242.092375,-6217.729913,148.041188,-76762.768900
11242.094947,3997.112087,1480.411884,-78294.959896
11242.097518,-1776.494261,592.164754,-77988.521696
11242.100089,-5033.400406,2516.700203,-75690.235202
11242.102661,740.205942,1332.370696,-78601.398095
11242.105232,1480.411884,-1628.453072,-76762.768900
11242.107804,-1924.535449,-296.082377,-76149.892501
11242.110375,-2516.700203,1184.329507,-78448.178995
11242.112947,1776.494261,1776.494261,-77222.426198
11242.115518,-11547.212695,3108.864956,-75230.577904
11242.118090,-2072.576638,3256.906145,-77988.521696
11242.120661,-5477.523971,1776.494261,-78907.836294
11242.123233,-6217.729913,2664.741391,-77222.426198
11242.125804,-2960.823768,2368.659014,-80286.808190
11242.128388,7254.018232,-2812.782580,-80593.246390
11242.130972,-5921.647536,-888.247130,-78448.178995
11242.133557,-7994.224174,2960.823768,-78294.959896
11242.136141,1628.453072,-1776.494261,-78448.178995
11242.138725,444.123565,2812.782580,-75843.454302
11242.141309,592.164754,592.164754,-79827.150892
11242.143894,5625.565159,3552.988522,-78907.836294
11242.146478,2368.659014,-2516.700203,-75077.358804
11242.149062,-4145.153275,-5181.441594,-75843.454302
11242.151646,148.041188,-3849.070898,-78754.617194
11242.154230,1924.535449,-5329.482782,-76149.892501
11242.156815,-888.247130,-4737.318029,-76456.330700
11242.159399,7846.182985,-4441.235652,-77375.645298
11242.161983,3404.947333,-3256.906145,-77222.426198
11242.164567,-1776.494261,-2516.700203,-76609.549800
11242.167151,6069.688724,592.164754,-78294.959896
11242.169736,4145.153275,-5773.606348,-79673.931792
11242.172320,-592.164754,-888.247130,-74617.701505
11242.174904,1184.329507,-3701.029710,-78754.617194
11242.177488,5921.647536,-5921.647536,-77375.645298
11242.180072,-1924.535449,-4145.153275,-77069.207099
11242.182657,-444.123565,296.082377,-77988.521696
11242.185241,8734.430116,-1924.535449,-78141.740796
11242.187825,-3552.988522,-2664.741391,-77069.207099
11242.190409,-1184.329507,-3404.947333,-76762.768900
11242.192994,-1184.329507,-148.041188,-80133.589091
11242.195578,5921.647536,-6513.812290,-78754.617194
11242.198162,-444.123565,1628.453072,-77375.645298
11242.200746,0.000000,-5625.565159,-79061.055394
11242.203330,6513.812290,-2664.741391,-78294.959896
11242.205915,-1480.411884,-8438.347739,-77375.645298
11242.208499,4589.276840,-2960.823768,-79520.712692
11242.211083,9326.594869,-6809.894666,-77988.521696
11242.213667,3552.988522,0.000000,-74924.139704
11242.216251,-1036.288319,-3108.864956,-77682.083497
11242.218836,6809.894666,-4441.235652,-79520.712692
11242.221420,4885.359217,-4145.153275,-76456.330700
11242.224004,-4293.194464,-3997.112087,-78294.959896
11242.226588,5921.647536,-1776.494261,-78907.836294
11242.229172,3849.070898,-3256.906145,-77375.645298
11242.231671,-2516.700203,-4293.194464,-77682.083497
11242.234169,1480.411884,-1332.370696,-78601.398095
11242.236667,1776.494261,-6217.729913,-77835.302597
11242.239165,-7846.182985,4145.153275,-76762.768900
11242.241663,-4441.235652,5033.400406,-78601.398095
11242.244161,1184.329507,2812.782580,-76303.111601
11242.246659,-1776.494261,-740.205942,-76762.768900
11242.249158,0.000000,2072.576638,-77988.521696
11242.251656,740.205942,1628.453072,-76915.987999
11242.254154,-9178.553681,-1628.453072,-76149.892501
11242.256652,1184.329507,-3108.864956,-77835.302597
11242.259150,888.247130,-2368.659014,-78448.178995
11242.261648,-1184.329507,1628.453072,-76915.987999
11242.264146,-2516.700203,6365.771101,-78294.959896
11242.266644,2960.823768,3108.864956,-79520.712692
11242.269143,-3849.070898,3701.029710,-77222.426198
11242.271641,-7550.100608,1628.453072,-78907.836294
11242.274139,3997.112087,1184.329507,-79367.493593
11242.276637,-444.123565,-3849.070898,-77222.426198
11242.279135,-2220.617826,-2960.823768,-75383.797003
11242.281633,-1184.329507,888.247130,-78141.740796
11242.284131,2960.823768,-1924.535449,-76762.768900
11242.286630,-5773.606348,4589.276840,-76609.549800
11242.289128,1628.453072,-1628.453072,-78907.836294
11242.291626,888.247130,1924.535449,-76915.987999
11242.294124,-7698.141797,-148.041188,-77069.207099
11242.296622,-2072.576638,5033.400406,-78754.617194
11242.299120,-3701.029710,740.205942,-77375.645298
11242.301618,-10955.047942,3108.864956,-76915.987999
11242.304117,-2960.823768,4589.276840,-78754.617194
11242.306615,2516.700203,-2220.617826,-79520.712692
11242.309113,-3404.947333,148.041188,-76915.987999
11242.311611,-7254.018232,148.041188,-79673.931792
11242.314109,-1036.288319,-148.041188,-78754.617194
11242.316607,-1628.453072,2812.782580,-76915.987999
11242.319105,1924.535449,-3849.070898,-78907.836294
11242.321603,6365.771101,2072.576638,-77835.302597
11242.324102,2960.823768,296.082377,-77222.426198
11242.326600,-1628.453072,-2072.576638,-75537.016103
11242.329098,888.247130,-4885.359217,-78754.617194
11242.331629,0.000000,-4885.359217,-75383.797003
11242.334158,-3256.906145,-4145.153275,-77222.426198
11242.336688,6069.688724,-7254.018232,-78448.178995
11242.339217,5477.523971,-1332.370696,-74924.139704
11242.341747,-296.082377,-1924.535449,-77835.302597
11242.344277,6217.729913,-3701.029710,-78754.617194
11242.346806,6513.812290,-3108.864956,-78754.617194
11242.349336,-3404.947333,-1628.453072,-75996.673402
11242.351866,3404.947333,-2220.617826,-79673.931792
11242.354395,5625.565159,-7550.100608,-78754.617194
11242.356925,888.247130,444.123565,-75383.797003
11242.359455,-2072.576638,-4293.194464,-80133.589091
11242.361984,9918.759623,-592.164754,-77375.645298
11242.364514,-3701.029710,-5477.523971,-77682.083497
11242.367043,444.123565,1924.535449,-77682.083497
11242.369573,-2516.700203,2960.823768,-78141.740796
11242.372103,7105.977043,-4441.235652,-78294.959896
11242.374632,-11251.130318,1628.453072,-76915.987999
11242.377162,6217.729913,-6809.894666,-77835.302597
11242.379692,-2220.617826,-296.082377,-75383.797003
11242.382221,-2220.617826,-6513.812290,-76609.549800
11242.384751,7254.018232,-2220.617826,-79673.931792
11242.387281,9326.594869,-4293.194464,-76762.768900
11242.389810,-444.123565,-2368.659014,-76762.768900
11242.392340,5773.606348,-2812.782580,-78601.398095
11242.394870,5329.482782,-7698.141797,-77835.302597
11242.397399,-3404.947333,-3701.029710,-75690.235202
11242.399929,1776.494261,-740.205942,-79367.493593
11242.402458,2516.700203,-5625.565159,-78601.398095
11242.404988,592.164754,-1184.329507,-75996.673402
11242.407518,148.041188,-6069.688724,-78141.740796
11242.410047,444.123565,-1628.453072,-76609.549800
11242.412519,-6365.771101,-1184.329507,-77528.864398
11242.414991,-10214.842000,1776.494261,-79214.274493
11242.417462,3701.029710,6809.894666,-79061.055394
11242.419934,-888.247130,0.000000,-77835.302597
11242.422405,-1924.535449,3256.906145,-78601.398095
11242.424877,1924.535449,1480.411884,-78141.740796
11242.427348,-2664.741391,740.205942,-75690.235202
11242.429820,-8882.471304,1184.329507,-79214.274493
11242.432292,-740.205942,-4293.194464,-80440.027290
11242.434763,592.164754,-1332.370696,-76762.768900
11242.437235,-5181.441594,1184.329507,-77222.426198
11242.439706,1480.411884,4441.235652,-76609.549800
11242.442178,-1480.411884,1924.535449,-78448.178995
11242.444650,-7105.977043,3849.070898,-75996.673402
11242.447121,-4589.276840,296.082377,-79061.055394
11242.449593,1776.494261,-1184.329507,-76609.549800
11242.452064,-2960.823768,-2664.741391,-76149.892501
11242.454536,1776.494261,-592.164754,-78141.740796
11242.457008,1628.453072,-888.247130,-77528.864398
11242.459479,296.082377,1776.494261,-77528.864398
11242.461951,-3256.906145,1924.535449,-78294.959896
11242.464422,2368.659014,-444.123565,-78601.398095
11242.466894,148.041188,6069.688724,-75690.235202
11242.469366,-8882.471304,1628.453072,-77988.521696
11242.471837,-1480.411884,4145.153275,-79673.931792
11242.474309,-10362.883188,2960.823768,-78294.959896
11242.476780,-6069.688724,3552.988522,-76762.768900
11242.479252,3849.070898,2220.617826,-78601.398095
11242.481723,592.164754,-2812.782580,-77222.426198
11242.484195,-12731.542202,3256.906145,-74311.263306
11242.486667,-1036.288319,3256.906145,-79367.493593
11242.489138,2812.782580,-148.041188,-76456.330700
11242.491610,-2664.741391,-740.205942,-76915.987999
11242.494081,-1036.288319,3849.070898,-78448.178995
11242.496553,8290.306550,296.082377,-75996.673402
11242.499025,-4737.318029,-2664.741391,-76303.111601
11242.501496,-7846.182985,-3256.906145,-77835.302597
11242.503968,3997.112087,-6809.894666,-78907.836294
11242.506439,740.205942,-6217.729913,-77835.302597
11242.508911,2072.576638,-1628.453072,-79673.931792
11242.511420,6957.935855,-4293.194464,-78754.617194
11242.513930,2072.576638,-444.123565,-77682.083497
11242.516439,-740.205942,-2368.659014,-79827.150892
11242.518948,3404.947333,-4885.359217,-79367.493593
11242.521458,2960.823768,-592.164754,-76149.892501
11242.523967,-2516.700203,-6661.853478,-77375.645298
11242.526476,3849.070898,-2072.576638,-78601.398095
11242.528986,1036.288319,-5921.647536,-77375.645298
11242.531495,-888.247130,-1628.453072,-75996.673402
11242.534004,5033.400406,-1776.494261,-80133.589091
11242.536514,4145.153275,-6217.729913,-77375.645298
11242.539023,-1776.494261,-1332.370696,-74924.139704
11242.541532,1480.411884,-1776.494261,-77682.083497
11242.544042,5181.441594,-1036.288319,-77528.864398
11242.546551,1480.411884,-5329.482782,-79367.493593
11242.549060,-4145.153275,-4293.194464,-77988.521696
11242.551570,9030.512492,-4885.359217,-78601.398095
11242.554079,1036.288319,-5477.523971,-77988.521696
11242.556588,7698.141797,-3552.988522,-79214.274493
11242.559098,9770.718434,-6513.812290,-79980.369991
11242.561607,2516.700203,-296.082377,-75537.016103
11242.564116,2072.576638,-6809.894666,-79520.712692
11242.566626,4589.276840,-6809.894666,-77682.083497
11242.569135,1036.288319,-1924.535449,-76456.330700
11242.571644,-3552.988522,-4885.359217,-76762.768900
11242.574154,8734.430116,444.123565,-76915.987999
11242.576663,444.123565,-3997.112087,-76149.892501
11242.579172,-6957.935855,-296.082377,-76456.330700
11242.581682,740.205942,-5181.441594,-79673.931792
11242.584191,-5329.482782,4293.194464,-75690.235202
11242.586700,-7698.141797,7846.182985,-76609.549800
11242.589210,5477.523971,1184.329507,-79367.493593
11242.591719,7550.100608,0.000000,-77528.864398
11242.594228,296.082377,1036.288319,-76303.111601
11242.596738,-10214.842000,-1184.329507,-77375.645298
11242.599247,-444.123565,-2072.576638,-77682.083497
11242.601756,-3404.947333,-740.205942,-78448.178995
11242.604266,-4293.194464,4589.276840,-75537.016103
11242.606775,2368.659014,1332.370696,-78448.178995
11242.609284,-148.041188,6069.688724,-75690.235202
11242.611823,-6217.729913,2664.741391,-77835.302597
11242.614361,-4441.235652,2516.700203,-79673.931792
11242.616899,4441.235652,2960.823768,-77069.207099
11242.619437,-2664.741391,-8438.347739,-78294.959896
11242.621975,-444.123565,5329.482782,-77835.302597
11242.624514,4145.153275,-1924.535449,-77682.083497
11242.627052,-2812.782580,-1628.453072,-76762.768900
11242.629590,-3552.988522,4589.276840,-78294.959896
11242.632128,6661.853478,-740.205942,-78907.836294
11242.634666,-9030.512492,5921.647536,-76456.330700
11242.637204,-7994.224174,2812.782580,-77528.864398
11242.639743,-6513.812290,1480.411884,-79367.493593
11242.642281,-3701.029710,-148.041188,-76915.987999
11242.644819,-9918.759623,1924.535449,-76915.987999
11242.647357,5033.400406,1036.288319,-78448.178995
11242.649895,-4441.235652,1184.329507,-77988.521696
11242.652434,-10066.800811,296.082377,-78294.959896
11242.654972,3552.988522,2960.823768,-79827.150892
11242.657510,592.164754,-1184.329507,-77375.645298
11242.660048,-2516.700203,4441.235652,-74924.139704
11242.662586,4441.235652,-1036.288319,-80899.684589
11242.665125,7994.224174,-3404.947333,-77222.426198
11242.667663,-5329.482782,-3552.988522,-76762.768900
11242.670201,-2812.782580,-6365.771101,-78754.617194
11242.672739,6661.853478,-5625.565159,-78754.617194
11242.675277,-2664.741391,-9326.594869,-78294.959896
11242.677816,3552.988522,296.082377,-77375.645298
11242.680354,8586.388927,-5625.565159,-79673.931792
11242.682892,1776.494261,-4441.235652,-76762.768900
11242.685430,-3404.947333,-2220.617826,-77835.302597
11242.687968,5329.482782,-6513.812290,-78448.178995
11242.690507,3404.947333,-3108.864956,-77835.302597
11242.693045,-888.247130,-2664.741391,-78448.178995
11242.695583,4737.318029,-4293.194464,-78141.740796
11242.698121,3256.906145,-5477.523971,-76762.768900
11242.700659,-2516.700203,148.041188,-76456.330700
11242.703198,4885.359217,1480.411884,-77528.864398
11242.705736,6513.812290,-4145.153275,-77682.083497
11242.708274,-5477.523971,-2664.741391,-75843.454302
11242.710812,7402.059420,-1628.453072,-79061.055394
11242.713370,2516.700203,-7105.977043,-76915.987999
11242.715928,1036.288319,-2516.700203,-75996.673402
11242.718485,1036.288319,-6217.729913,-79061.055394
11242.721043,6365.771101,-5329.482782,-75690.235202
11242.723600,2368.659014,-3256.906145,-77222.426198
11242.726158,10066.800811,-5033.400406,-77528.864398
11242.728716,13175.665768,-4293.194464,-77069.207099
11242.731273,0.000000,-7698.141797,-77528.864398
11242.733831,-6069.688724,1776.494261,-76149.892501
11242.736389,6217.729913,-1776.494261,-79367.493593
11242.738946,1480.411884,-4441.235652,-77069.207099
11242.741504,888.247130,-888.247130,-78294.959896
11242.744062,3108.864956,-1776.494261,-78294.959896
11242.746619,740.205942,-3997.112087,-76609.549800
11242.749177,-13175.665768,444.123565,-77835.302597
11242.751735,-3256.906145,6217.729913,-78141.740796
11242.754292,4737.318029,4293.194464,-76456.330700
11242.756850,-2368.659014,1776.494261,-74924.139704
11242.759408,3256.906145,2960.823768,-77682.083497
11242.761965,-3552.988522,-888.247130,-77528.864398
11242.764523,-10362.883188,1628.453072,-76915.987999
11242.767081,-3108.864956,-740.205942,-78754.617194
11242.769638,-3404.947333,-2960.823768,-77682.083497
11242.772196,-1480.411884,5181.441594,-76915.987999
11242.774754,-4145.153275,2664.741391,-78141.740796
11242.777311,2072.576638,2220.617826,-77682.083497
11242.779869,-4589.276840,2664.741391,-78141.740796
11242.782427,-6069.688724,3108.864956,-78754.617194
11242.784984,1924.535449,-296.082377,-79214.274493
11242.787542,1036.288319,-4885.359217,-77375.645298
11242.790099,-3404.947333,2516.700203,-76915.987999
11242.792657,444.123565,-2960.823768,-79061.055394
11242.795215,4737.318029,2072.576638,-76915.987999
11242.797772,-8290.306550,2960.823768,-77528.864398
11242.800330,592.164754,2368.659014,-77988.521696
11242.802888,-1924.535449,4737.318029,-76915.987999
11242.805445,-11991.336260,-1628.453072,-75537.016103
11242.808003,-3997.112087,5625.565159,-78448.178995
11242.810561,-1480.411884,-4293.194464,-77988.521696
11242.813118,-9326.594869,1184.329507,-76149.892501
11242.815690,1628.453072,-888.247130,-78754.617194
11242.818263,148.041188,296.082377,-77375.645298
11242.820835,296.082377,3108.864956,-77222.426198
11242.823407,-3404.947333,-888.247130,-79520.712692
11242.825979,3256.906145,2960.823768,-79673.931792
11242.828551,1480.411884,2368.659014,-76762.768900
11242.831123,2812.782580,-6365.771101,-78907.836294
11242.833695,3701.029710,-5773.606348,-79520.712692
11242.836267,-3404.947333,-6513.812290,-77069.207099
11242.838839,-444.123565,-6365.771101,-76609.549800
11242.841411,6809.894666,-4293.194464,-78754.617194
11242.843983,6217.729913,-2664.741391,-76915.987999
11242.846555,-592.164754,-3552.988522,-76149.892501
11242.849127,7402.059420,-1480.411884,-76762.768900
11242.851699,1628.453072,-3552.988522,-75690.235202
11242.854271,-1628.453072,-3701.029710,-77375.645298
11242.856844,5773.606348,-6809.894666,-78907.836294
11242.859416,3552.988522,-2072.576638,-74924.139704
11242.861988,-1480.411884,-2516.700203,-75537.016103
11242.864560,-1628.453072,-1480.411884,-78448.178995
11242.867132,8290.306550,-2960.823768,-79214.274493
11242.869704,-1628.453072,-444.123565,-75077.358804
11242.872276,-296.082377,-148.041188,-78754.617194
11242.874848,5181.441594,-6365.771101,-79367.493593
11242.877420,-3849.070898,-1036.288319,-76609.549800
11242.879992,2072.576638,-4441.235652,-78601.398095
11242.882564,7550.100608,-3997.112087,-77682.083497
11242.885136,6513.812290,-4441.235652,-75843.454302
11242.887708,1628.453072,-3256.906145,-76456.330700
11242.890280,12731.542202,-5477.523971,-78294.959896
11242.892852,5329.482782,-6069.688724,-77069.207099
11242.895425,0.000000,-2368.659014,-76149.892501
11242.897997,0.000000,-3997.112087,-79520.712692
11242.900569,1924.535449,-1332.370696,-76303.111601
11242.903141,-2516.700203,-444.123565,-77375.645298
11242.905713,6809.894666,-1480.411884,-78141.740796
11242.908285,6809.894666,-2516.700203,-77835.302597
11242.910857,-8290.306550,-5625.565159,-77835.302597
11242.913429,-9178.553681,5477.523971,-78294.959896
11242.916001,-4589.276840,3256.906145,-78754.617194
11242.918584,-2516.700203,5773.606348,-76609.549800
11242.921167,3256.906145,1776.494261,-78907.836294
11242.923749,3108.864956,3404.947333,-77375.645298
11242.926332,-9770.718434,888.247130,-77069.207099
11242.928915,-4441.235652,148.041188,-79673.931792
11242.931498,-3552.988522,-1480.411884,-80133.589091
11242.934081,-740.205942,-1036.288319,-78448.178995
11242.936663,-5921.647536,4589.276840,-77375.645298
11242.939246,3849.070898,1480.411884,-79214.274493
11242.941829,740.205942,6217.729913,-76149.892501
11242.944412,-14211.954086,296.082377,-79214.274493
11242.946994,-592.164754,2812.782580,-78754.617194
11242.949577,592.164754,-296.082377,-76609.549800
11242.952160,-3552.988522,-740.205942,-77069.207099
11242.954743,-2368.659014,148.041188,-76915.987999
11242.957326,1776.494261,-4145.153275,-78601.398095
11242.959908,-10510.924376,5625.565159,-77222.426198
11242.962491,148.041188,2516.700203,-79827.150892
11242.965074,-888.247130,5181.441594,-76609.549800
11242.967657,-9474.636058,1480.411884,-75996.673402
11242.970240,-6661.853478,3108.864956,-78907.836294
11242.972822,-1480.411884,-4441.235652,-77988.521696
11242.975405,-9326.594869,148.041188,-76149.892501
11242.977988,-8290.306550,3849.070898,-77682.083497
11242.980571,1332.370696,2072.576638,-78601.398095
11242.983154,3997.112087,740.205942,-76456.330700
11242.985736,-4589.276840,-740.205942,-78448.178995
11242.988319,2812.782580,4293.194464,-79520.712692
11242.990902,148.041188,1776.494261,-77682.083497
11242.993485,2960.823768,-1480.411884,-76149.892501
11242.996067,6365.771101,-6365.771101,-79520.712692
11242.998650,-1480.411884,-6957.935855,-77222.426198
11243.001233,-2516.700203,-6957.935855,-76762.768900
11243.003816,5625.565159,-3256.906145,-79214.274493
11243.006399,6809.894666,-3552.988522,-77069.207099
11243.008981,1628.453072,-3108.864956,-76609.549800
11243.011564,444.123565,-2368.659014,-77835.302597
11243.014147,7994.224174,-888.247130,-77375.645298
11243.016730,0.000000,-4293.194464,-77069.207099
11243.019313,-1184.329507,-4885.359217,-79367.493593
11243.021901,5329.482782,-5181.441594,-79214.274493
11243.024490,2368.659014,-4737.318029,-76303.111601
11243.027079,-5033.400406,148.041188,-75077.358804
11243.029668,4293.194464,-1332.370696,-79367.493593
11243.032257,0.000000,-2368.659014,-77528.864398
11243.034846,-1628.453072,-1924.535449,-77069.207099
11243.037434,592.164754,1776.494261,-77835.302597
11243.040023,5181.441594,-9178.553681,-77222.426198
11243.042612,-4737.318029,-3849.070898,-76149.892501
11243.045201,-444.123565,-1924.535449,-75843.454302
11243.047790,11251.130318,-6069.688724,-80133.589091
11243.050379,6957.935855,-4441.235652,-76915.987999
11243.052968,6069.688724,-4293.194464,-79367.493593
11243.055556,8142.265362,-4885.359217,-78448.178995
11243.058145,-1924.535449,-2220.617826,-77835.302597
11243.060734,-6513.812290,-296.082377,-78601.398095
11243.063323,8290.306550,-5477.523971,-79214.274493
11243.065912,1776.494261,-3256.906145,-77069.207099
11243.068501,-1036.288319,148.041188,-75383.797003
11243.071089,740.205942,-4737.318029,-79827.150892
11243.073678,-8586.388927,2220.617826,-76762.768900
11243.076267,-10955.047942,6661.853478,-75996.673402
11243.078856,2072.576638,5329.482782,-78907.836294
11243.081445,4737.318029,1184.329507,-77375.645298
11243.084034,-4885.359217,6069.688724,-74617.701505
11243.086623,-444.123565,1184.329507,-78294.959896
11243.089211,-6809.894666,-3108.864956,-78448.178995
11243.091800,-9030.512492,740.205942,-76609.549800
11243.094389,-5921.647536,-592.164754,-79214.274493
11243.096978,6217.729913,592.164754,-78294.959896
11243.099567,-740.205942,5477.523971,-77528.864398
11243.102156,-11251.130318,3849.070898,-79367.493593
11243.104744,-296.082377,1924.535449,-79214.274493
11243.107333,-2368.659014,-1184.329507,-77528.864398
11243.109922,-6069.688724,2960.823768,-79214.274493
11243.112511,8142.265362,-2812.782580,-79673.931792
11243.115100,1924.535449,-3256.906145,-76609.549800
11243.117689,-8734.430116,3997.112087,-75843.454302
11243.120278,3997.112087,1924.535449,-80133.589091
11243.122866,-2812.782580,4737.318029,-76915.987999
11243.125459,-7846.182985,2664.741391,-77375.645298
11243.128053,-5477.523971,3701.029710,-78141.740796
11243.130646,0.000000,296.082377,-75843.454302
11243.133239,-10807.006753,-1776.494261,-77528.864398
11243.135832,148.041188,888.247130,-78907.836294
11243.138425,1480.411884,-592.164754,-80593.246390
11243.141018,-1776.494261,2812.782580,-76303.111601
11243.143611,3552.988522,-1480.411884,-78907.836294
11243.146205,1776.494261,-444.123565,-78448.178995
11243.148798,-2072.576638,4145.153275,-77069.207099
11243.151391,3701.029710,-3997.112087,-79061.055394
11243.153984,6809.894666,-3256.906145,-77069.207099
11243.156577,-2220.617826,-6957.935855,-76149.892501
11243.159170,-1184.329507,-6217.729913,-79214.274493
11243.161763,7846.182985,-7402.059420,-78754.617194
11243.164357,888.247130,-3404.947333,-75843.454302
11243.166950,444.123565,-2072.576638,-76915.987999
11243.169543,5625.565159,-2664.741391,-78141.740796
11243.172136,6661.853478,-2812.782580,-76915.987999
11243.174729,-5033.400406,-1776.494261,-76303.111601
11243.177322,8734.430116,-5181.441594,-77988.521696
11243.179915,2812.782580,-6365.771101,-77222.426198
11243.182509,-2072.576638,-1480.411884,-76303.111601
11243.185102,3552.988522,1776.494261,-79061.055394
11243.187695,7105.977043,-3108.864956,-79673.931792
11243.190288,-5625.565159,-2072.576638,-75383.797003
11243.192881,3701.029710,-1480.411884,-79061.055394
11243.195474,5033.400406,-592.164754,-78448.178995
11243.198067,-3108.864956,-5033.400406,-77682.083497
11243.200661,2072.576638,-2516.700203,-80286.808190
11243.203254,10658.965565,-9030.512492,-77375.645298
11243.205847,1184.329507,-4441.235652,-75383.797003
11243.208440,2960.823768,-1924.535449,-76149.892501
11243.211033,11399.171507,-8734.430116,-80899.684589
11243.213626,3256.906145,148.041188,-75843.454302
11243.216219,-8734.430116,-1628.453072,-77375.645298
11243.218813,3108.864956,-2516.700203,-78754.617194
11243.221406,4737.318029,-3404.947333,-76915.987999
11243.223999,-3701.029710,-2960.823768,-76915.987999
11243.226592,6957.935855,-1332.370696,-77375.645298
11243.229188,888.247130,-5329.482782,-78601.398095
11243.231784,-15100.201217,7254.018232,-77069.207099
11243.234380,-3997.112087,6217.729913,-80440.027290
11243.236976,2516.700203,1332.370696,-78294.959896
11243.239572,1924.535449,5477.523971,-75537.016103
11243.242168,1332.370696,2368.659014,-79214.274493
11243.244764,-888.247130,888.247130,-77222.426198
11243.247360,-13471.748144,-3256.906145,-78601.398095
11243.249957,-5477.523971,1480.411884,-77375.645298
11243.252553,4885.359217,740.205942,-79827.150892
11243.255149,888.247130,1776.494261,-75230.577904
11243.257745,-1924.535449,6217.729913,-77988.521696
11243.260341,-2368.659014,-444.123565,-78907.836294
11243.262937,-6513.812290,3701.029710,-75843.454302
11243.265533,-3404.947333,2516.700203,-77528.864398
11243.268129,3552.988522,-3404.947333,-78907.836294
11243.270725,1332.370696,1924.535449,-77528.864398
11243.273321,-6957.935855,-3108.864956,-78754.617194
11243.275917,-5477.523971,3108.864956,-78448.178995
11243.278513,5033.400406,4589.276840,-77835.302597
11243.281109,-12139.377449,1776.494261,-77222.426198
11243.283705,-1924.535449,6365.771101,-77835.302597
11243.286301,-2960.823768,-888.247130,-78141.740796
11243.288897,-10955.047942,-1036.288319,-75996.673402
11243.291494,-4145.153275,2368.659014,-79520.712692
11243.294090,-1924.535449,-2220.617826,-76762.768900
11243.296686,-1332.370696,2960.823768,-75843.454302
11243.299282,-888.247130,-1924.535449,-77069.207099
11243.301878,2960.823768,2960.823768,-76915.987999
11243.304474,-3701.029710,1924.535449,-79673.931792
11243.307070,1480.411884,-888.247130,-78294.959896
11243.309666,4737.318029,-4589.276840,-78601.398095
11243.312262,-1184.329507,-5921.647536,-75383.797003
11243.314858,0.000000,-5181.441594,-78141.740796
11243.317454,10807.006753,-10066.800811,-79673.931792
11243.320050,888.247130,-2516.700203,-75383.797003
11243.322646,-740.205942,-5033.400406,-77069.207099
11243.325242,3997.112087,1036.288319,-77375.645298
11243.327838,6069.688724,-7254.018232,-77835.302597
11243.330434,-5033.400406,148.041188,-75383.797003
11243.333031,9622.677246,-6957.935855,-79673.931792
11243.335628,3997.112087,-3701.029710,-76456.330700
11243.338224,-1036.288319,-7402.059420,-76915.987999
11243.340820,-1036.288319,148.041188,-77835.302597
11243.343417,7254.018232,1480.411884,-77222.426198
11243.346013,1628.453072,-3108.864956,-78294.959896
11243.348609,-5181.441594,-1332.370696,-78754.617194
11243.351206,8142.265362,-3256.906145,-77528.864398
11243.353802,-2220.617826,-3849.070898,-77375.645298
11243.356398,1184.329507,-3404.947333,-79214.274493
11243.358995,9622.677246,-9178.553681,-80133.589091
11243.361591,6809.894666,-4441.235652,-75537.016103
11243.364187,3997.112087,-4737.318029,-78754.617194
11243.366784,6069.688724,-740.205942,-78448.178995
11243.369380,-888.247130,-4145.153275,-77222.426198
11243.371976,-4589.276840,592.164754,-75843.454302
11243.374573,5329.482782,-1776.494261,-78294.959896
11243.377169,5033.400406,-4293.194464,-77988.521696
11243.379765,-3849.070898,-2812.782580,-75690.235202
11243.382362,4441.235652,-3256.906145,-77988.521696
11243.384958,-7698.141797,1184.329507,-77069.207099
11243.387554,-14508.036463,3404.947333,-77222.426198
11243.390151,-2960.823768,6809.894666,-79520.712692
11243.392747,7254.018232,3701.029710,-78448.178995
11243.395343,-1036.288319,3404.947333,-76762.768900
11243.397940,-4293.194464,3997.112087,-79520.712692
11243.400536,-3997.112087,-4293.194464,-79061.055394
11243.403132,-6809.894666,-592.164754,-76149.892501
11243.405729,-6957.935855,-296.082377,-79673.931792
11243.408325,8142.265362,444.123565,-78907.836294
11243.410921,-1776.494261,4293.194464,-76609.549800
11243.413518,-9178.553681,5181.441594,-76609.549800
11243.416114,888.247130,1776.494261,-78294.959896
11243.418710,-444.123565,-444.123565,-77375.645298
11243.421307,-3552.988522,2072.576638,-75843.454302
11243.423903,1628.453072,-5329.482782,-80440.027290
11243.426500,2220.617826,1036.288319,-74924.139704
11243.429096,-8586.388927,592.164754,-76915.987999
11243.431692,-592.164754,6365.771101,-77069.207099
11243.434289,2664.741391,3108.864956,-79367.493593
11243.436885,-5921.647536,-296.082377,-77375.645298
11243.439481,-7550.100608,3256.906145,-75996.673402
11243.442077,-2960.823768,-1184.329507,-78601.398095
11243.444673,-5329.482782,2516.700203,-76303.111601
11243.447269,-7550.100608,296.082377,-78141.740796
11243.449866,7698.141797,-592.164754,-77222.426198
11243.452462,2220.617826,296.082377,-76609.549800
11243.455058,-6217.729913,4441.235652,-76609.549800
11243.457654,1776.494261,-444.123565,-79214.274493
11243.460250,4885.359217,-7402.059420,-79214.274493
11243.462846,-1036.288319,-2368.659014,-76762.768900
11243.465443,3108.864956,-5329.482782,-78141.740796
11243.468039,9918.759623,-7402.059420,-78448.178995
11243.470635,-2960.823768,-8734.430116,-78141.740796
11243.473231,5181.441594,-888.247130,-78294.959896
11243.475827,7254.018232,-4293.194464,-77988.521696
11243.478423,-1036.288319,-296.082377,-76456.330700
11243.481020,-1776.494261,-444.123565,-77682.083497
11243.483616,6513.812290,-5033.400406,-78294.959896
11243.486212,5625.565159,-3404.947333,-75690.235202
11243.488808,-5033.400406,-6069.688724,-77375.645298
11243.491404,4589.276840,-1480.411884,-78907.836294
11243.494001,1776.494261,-1036.288319,-77988.521696
11243.496597,-7402.059420,-2072.576638,-77528.864398
11243.499193,5033.400406,-1036.288319,-77682.083497
11243.501789,-592.164754,-3256.906145,-75996.673402
11243.504385,-2812.782580,-2368.659014,-75843.454302
11243.506981,2960.823768,-3701.029710,-79061.055394
11243.509578,9474.636058,-8290.306550,-78907.836294
11243.512174,5033.400406,-7254.018232,-77528.864398
11243.514770,9178.553681,-6513.812290,-78448.178995
11243.517366,7550.100608,-3849.070898,-76915.987999
11243.519962,-9030.512492,-3552.988522,-77988.521696
11243.522558,2072.576638,2220.617826,-79061.055394
11243.525155,5033.400406,-6957.935855,-78448.178995
11243.527751,888.247130,-3701.029710,-76915.987999
11243.530347,-740.205942,-1036.288319,-77682.083497
11243.532943,2072.576638,-5625.565159,-78907.836294
11243.535539,-7550.100608,3997.112087,-77375.645298
11243.538135,-13471.748144,5181.441594,-79827.150892
11243.540678,7846.182985,5921.647536,-78141.740796
11243.543221,888.247130,2664.741391,-77222.426198
11243.545764,-3849.070898,5921.647536,-76762.768900
11243.548306,1924.535449,0.000000,-80133.589091
11243.550849,-7550.100608,-6069.688724,-79061.055394
11243.553392,-9622.677246,-740.205942,-75996.673402
11243.555934,-444.123565,-444.123565,-78141.740796
11243.558477,2664.741391,2072.576638,-76609.549800
11243.561020,-4441.235652,1924.535449,-76456.330700
11243.563563,-1628.453072,3849.070898,-78907.836294
11243.566105,-3849.070898,1332.370696,-77835.302597
11243.568648,-3701.029710,1332.370696,-75383.797003
11243.571191,740.205942,0.000000,-77988.521696
11243.573733,4145.153275,-740.205942,-77069.207099
11243.576276,-148.041188,0.000000,-76456.330700
11243.578819,-8734.430116,3404.947333,-78141.740796
11243.581362,-148.041188,3849.070898,-79061.055394
11243.583904,-5625.565159,6365.771101,-78754.617194
11243.586447,-9474.636058,3552.988522,-77682.083497
11243.588990,3701.029710,888.247130,-78601.398095
11243.591532,-8438.347739,3701.029710,-75996.673402
11243.594075,-7994.224174,1924.535449,-78907.836294
11243.596618,4737.318029,148.041188,-78907.836294
11243.599161,4145.153275,-3256.906145,-77835.302597
11243.601703,-6365.771101,5477.523971,-76303.111601
11243.604246,1776.494261,-296.082377,-79061.055394
11243.606789,7550.100608,-4589.276840,-76609.549800
11243.609331,-6365.771101,-2664.741391,-75843.454302
11243.611874,4145.153275,-2072.576638,-77069.207099
11243.614417,4589.276840,-6957.935855,-77069.207099
11243.616959,888.247130,-9178.553681,-77222.426198
11243.619502,-2516.700203,-1480.411884,-79214.274493
11243.622045,9178.553681,-4589.276840,-79520.712692
11243.624588,2220.617826,-148.041188,-75690.235202
11243.627130,148.041188,-2516.700203,-78294.959896
11243.629673,7994.224174,-2072.576638,-78141.740796
11243.632216,1184.329507,-5477.523971,-77528.864398
11243.634758,2220.617826,-2516.700203,-78754.617194
11243.637301,6957.935855,-8438.347739,-79673.931792
11243.639844,-2072.576638,-5329.482782,-78141.740796
11243.642398,-6217.729913,-296.082377,-75996.673402
11243.644952,4145.153275,148.041188,-77682.083497
11243.647506,2812.782580,-1924.535449,-75843.454302
11243.650060,-3256.906145,-6069.688724,-76762.768900
11243.652614,3404.947333,-6661.853478,-78907.836294
11243.655168,11399.171507,-5625.565159,-77069.207099
11243.657722,3552.988522,-10510.924376,-76762.768900
11243.660276,13767.830521,-3849.070898,-76762.768900
11243.662830,8586.388927,-5181.441594,-79673.931792
11243.665384,-6809.894666,-740.205942,-75996.673402
11243.667938,1036.288319,1036.288319,-79367.493593
11243.670492,6069.688724,-6365.771101,-79214.274493
11243.673046,-2220.617826,-1776.494261,-77375.645298
11243.675600,1036.288319,-4441.235652,-79214.274493
11243.678154,3256.906145,-4589.276840,-77835.302597
11243.680708,-9918.759623,5773.606348,-76456.330700
11243.683262,-10362.883188,5181.441594,-77069.207099
11243.685816,6365.771101,3849.070898,-78448.178995
11243.688370,1480.411884,3701.029710,-76456.330700
11243.690924,-4885.359217,4589.276840,-75843.454302
11243.693478,444.123565,740.205942,-78754.617194
11243.696032,-7846.182985,-5033.400406,-77222.426198
11243.698586,-8882.471304,1776.494261,-75996.673402
11243.701140,0.000000,-296.082377,-78141.740796
11243.703694,740.205942,2960.823768,-75843.454302
11243.706248,-6661.853478,4737.318029,-76149.892501
11243.708802,-5477.523971,296.082377,-77682.083497
11243.711356,-1184.329507,4885.359217,-77222.426198
11243.713910,-2960.823768,-5181.441594,-78141.740796
11243.716464,-3108.864956,6957.935855,-77835.302597
11243.719018,8882.471304,-3404.947333,-77835.302597
11243.721572,-9474.636058,3404.947333,-76303.111601
11243.724135,-2516.700203,1628.453072,-78601.398095
11243.726698,-2664.741391,592.164754,-78141.740796
11243.729261,-7698.141797,7994.224174,-76762.768900
11243.731823,-9622.677246,1628.453072,-77375.645298
11243.734386,-3701.029710,2812.782580,-79061.055394
11243.736949,-1776.494261,1924.535449,-78141.740796
11243.739512,-4145.153275,2368.659014,-76762.768900
11243.742075,6513.812290,-4589.276840,-79367.493593
11243.744638,-2516.700203,740.205942,-77222.426198
11243.747200,-2072.576638,4885.359217,-76609.549800
11243.749763,4737.318029,-5625.565159,-80593.246390
11243.752326,5181.441594,-6365.771101,-78448.178995
11243.754889,-1924.535449,-2664.741391,-76609.549800
11243.757452,5181.441594,-5329.482782,-79673.931792
11243.760015,8290.306550,-8882.471304,-77069.207099
11243.762577,-3701.029710,-5477.523971,-76762.768900
11243.765140,4441.235652,-2960.823768,-79061.055394
11243.767703,6217.729913,-4737.318029,-77835.302597
11243.770266,1924.535449,296.082377,-74004.825107
11243.772829,1776.494261,-4589.276840,-80286.808190
11243.775392,8290.306550,-6365.771101,-78294.959896
11243.777954,5181.441594,-3404.947333,-76762.768900
11243.780517,-5921.647536,-2516.700203,-78294.959896
11243.783080,7402.059420,-2072.576638,-79214.274493
11243.785643,3849.070898,-5477.523971,-77682.083497
11243.788206,-7698.141797,888.247130,-76149.892501
11243.790769,5181.441594,-3701.029710,-79367.493593
11243.793331,-148.041188,-2516.700203,-76915.987999
11243.795894,1184.329507,-5329.482782,-78294.959896
11243.798457,8290.306550,-9030.512492,-79520.712692
11243.801020,15100.201217,-7846.182985,-76609.549800
11243.803583,-2368.659014,-6069.688724,-76762.768900
11243.806146,2812.782580,-1332.370696,-78448.178995
11243.808708,-1628.453072,-4145.153275,-78294.959896
11243.811271,0.000000,296.082377,-74004.825107
11243.813834,4737.318029,-296.082377,-79367.493593
11243.816397,1628.453072,-4145.153275,-77375.645298
11243.818960,1332.370696,-4589.276840,-76915.987999
11243.821523,-15100.201217,-296.082377,-78907.836294
11243.824086,-5773.606348,7105.977043,-77069.207099
11243.826654,-1924.535449,6661.853478,-76915.987999
11243.829223,-592.164754,2072.576638,-78601.398095
11243.831791,11547.212695,5773.606348,-78294.959896
11243.834360,-5921.647536,888.247130,-77375.645298
11243.836928,-8438.347739,1628.453072,-77835.302597
11243.839497,-3108.864956,-3404.947333,-80286.808190
11243.842065,-7698.141797,-148.041188,-76303.111601
11243.844634,740.205942,4293.194464,-75843.454302
11243.847202,-1036.288319,1332.370696,-79367.493593
11243.849771,296.082377,2516.700203,-76609.549800
11243.852339,-4737.318029,2368.659014,-77069.207099
11243.854908,-5625.565159,4293.194464,-77835.302597
11243.857476,3404.947333,-2220.617826,-79980.369991
11243.860045,1184.329507,-740.205942,-78294.959896
11243.862613,-4737.318029,4589.276840,-77375.645298
11243.865182,1332.370696,-148.041188,-79061.055394
11243.867750,-6069.688724,2516.700203,-77375.645298
11243.870319,-12287.418637,4145.153275,-77375.645298
11243.872887,-4441.235652,4737.318029,-77682.083497
11243.875456,-2072.576638,3552.988522,-77375.645298
11243.878024,-7550.100608,1332.370696,-76915.987999
11243.880593,5033.400406,-592.164754,-79061.055394
11243.883161,1480.411884,-5329.482782,-77069.207099
11243.885730,-8734.430116,2368.659014,-75996.673402
11243.888298,3701.029710,296.082377,-79520.712692
11243.890867,8142.265362,-6809.894666,-78907.836294
11243.893435,-2220.617826,-2812.782580,-76915.987999
11243.896004,4589.276840,-3552.988522,-78907.836294
11243.898572,8438.347739,-10510.924376,-80286.808190
11243.901141,148.041188,-4441.235652,-75690.235202
11243.903709,-3404.947333,-3849.070898,-78448.178995
11243.906278,9178.553681,-6809.894666,-79367.493593
11243.908847,1036.288319,-3849.070898,-76456.330700
11243.911415,5181.441594,-444.123565,-76609.549800
11243.913984,5033.400406,-3404.947333,-77528.864398
11243.916552,296.082377,-7105.977043,-77069.207099
11243.919121,-1184.329507,-1184.329507,-75690.235202
11243.921689,2072.576638,-3849.070898,-79061.055394
11243.924258,3997.112087,-2664.741391,-76456.330700
11243.926826,-5033.400406,-2368.659014,-76456.330700
11243.929399,4293.194464,-3256.906145,-76762.768900
11243.931972,888.247130,-2220.617826,-77069.207099
11243.934545,-2072.576638,-4885.359217,-76915.987999
11243.937118,5181.441594,-2664.741391,-78907.836294
11243.939691,17024.736666,-10658.965565,-80286.808190
11243.942265,2220.617826,-4737.318029,-75996.673402
11243.944838,5181.441594,-4145.153275,-78601.398095
11243.947411,-1036.288319,-2960.823768,-77835.302597
11243.949984,1628.453072,-1924.535449,-76915.987999
11243.952557,-444.123565,-592.164754,-79214.274493
11243.955130,6365.771101,-4737.318029,-77682.083497
11243.957703,-3256.906145,-3997.112087,-77222.426198
11243.960276,-11843.295072,740.205942,-75537.016103
11243.962849,-2368.659014,5625.565159,-78141.740796
11243.965422,-8586.388927,4589.276840,-76762.768900
11243.967995,-1480.411884,4737.318029,-78601.398095
11243.970568,6365.771101,3256.906145,-79061.055394
11243.973141,888.247130,4885.359217,-75383.797003
11243.975714,-11547.212695,2516.700203,-77528.864398
11243.978287,-3108.864956,-2664.741391,-79673.931792
11243.980861,-148.041188,-1924.535449,-77988.521696
11243.983434,-7402.059420,296.082377,-76456.330700
11243.986007,5329.482782,2812.782580,-77988.521696
11243.988580,4589.276840,1628.453072,-77375.645298
11243.991153,-7994.224174,2960.823768,-75690.235202
11243.993726,-2664.741391,1776.494261,-79520.712692
11243.996299,-2220.617826,-2516.700203,-76456.330700
11243.998872,1184.329507,148.041188,-77069.207099
11244.001445,-2960.823768,1924.535449,-79520.712692
11244.004018,6513.812290,2072.576638,-76456.330700
11244.006591,-10362.883188,1776.494261,-76762.768900
11244.009164,-12879.583391,6513.812290,-77069.207099
11244.011737,-3552.988522,4441.235652,-79673.931792
11244.014310,-5181.441594,2664.741391,-76915.987999
11244.016883,-4145.153275,4885.359217,-77069.207099
11244.019457,9770.718434,-3997.112087,-79061.055394
11244.022030,1776.494261,-1184.329507,-77375.645298
11244.024603,-9474.636058,1332.370696,-77222.426198
11244.027176,1036.288319,592.164754,-77682.083497
11244.029749,9326.594869,-6957.935855,-77988.521696
11244.032325,-5477.523971,-4589.276840,-74770.920605
11244.034902,8586.388927,-2960.823768,-78754.617194
11244.037479,3701.029710,-8586.388927,-77375.645298
11244.040055,-2516.700203,-3108.864956,-76609.549800
11244.042632,2220.617826,-5033.400406,-78294.959896
11244.045209,2072.576638,-7105.977043,-77222.426198
11244.047785,3552.988522,-740.205942,-75996.673402
11244.050362,-740.205942,-1480.411884,-78294.959896
11244.052938,6365.771101,-4737.318029,-78907.836294
11244.055515,2812.782580,-3701.029710,-76762.768900
11244.058092,-3997.112087,-2960.823768,-79214.274493
11244.060668,4737.318029,-1628.453072,-78907.836294
11244.063245,296.082377,-5477.523971,-78601.398095
11244.065822,-4589.276840,2664.741391,-78141.740796
11244.068398,8438.347739,-5181.441594,-79980.369991
11244.070975,-1480.411884,-1036.288319,-76762.768900
11244.073552,-3701.029710,-4885.359217,-74924.139704
11244.076128,9622.677246,-7254.018232,-79980.369991
11244.078705,13175.665768,-8290.306550,-77682.083497
11244.081281,2664.741391,-6069.688724,-76149.892501
11244.083858,2960.823768,-2664.741391,-78294.959896
11244.086435,1924.535449,-4589.276840,-76303.111601
11244.089011,-3849.070898,-1480.411884,-76609.549800
11244.091588,7846.182985,-2072.576638,-79061.055394
11244.094165,2220.617826,-3701.029710,-80133.589091
11244.096741,-2072.576638,-2220.617826,-76456.330700
11244.099318,-10214.842000,4885.359217,-78754.617194
11244.101895,-4145.153275,2516.700203,-78907.836294
11244.104471,-6661.853478,5773.606348,-76915.987999
11244.107048,888.247130,3849.070898,-79367.493593
11244.109624,7402.059420,2664.741391,-77988.521696
11244.112201,-3997.112087,2664.741391,-74924.139704
11244.114778,-8290.306550,1776.494261,-79214.274493
11244.117354,-5921.647536,-1184.329507,-78141.740796
11244.119931,-3701.029710,888.247130,-76303.111601
11244.122508,-5477.523971,3256.906145,-76915.987999
11244.125084,4441.235652,1480.411884,-78754.617194
11244.127661,-1924.535449,3849.070898,-76915.987999
11244.130237,-5625.565159,888.247130,-76303.111601
11244.132814,-296.082377,-740.205942,-78754.617194
11244.135392,1036.288319,1776.494261,-76609.549800
11244.137970,-4737.318029,-592.164754,-77528.864398
11244.140548,-4441.235652,4885.359217,-77988.521696
11244.143126,-1184.329507,148.041188,-77988.521696
11244.145704,-15840.407159,5921.647536,-75996.673402
11244.148283,-7698.141797,4293.194464,-80133.589091
11244.150861,-4293.194464,2072.576638,-78601.398095
11244.153439,-3997.112087,6365.771101,-75077.358804
11244.156017,4145.153275,-296.082377,-79061.055394
11244.158595,5625.565159,-5181.441594,-78141.740796
11244.161173,-12287.418637,592.164754,-77682.083497
11244.163751,-7402.059420,-740.205942,-77069.207099
11244.166329,12583.501014,-4737.318029,-79980.369991
11244.168907,-296.082377,-5181.441594,-76456.330700
11244.171485,1924.535449,-1924.535449,-76609.549800
11244.174063,6661.853478,-6957.935855,-79673.931792
11244.176641,296.082377,-5329.482782,-75690.235202
11244.179219,-6957.935855,-3108.864956,-77528.864398
11244.181798,7105.977043,-6217.729913,-79367.493593
11244.184376,7254.018232,-2664.741391,-77222.426198
11244.186954,-592.164754,-4441.235652,-77069.207099
11244.189532,5477.523971,-444.123565,-77682.083497
11244.192110,6661.853478,-8142.265362,-77988.521696
11244.194688,-9326.594869,-2220.617826,-75843.454302
11244.197266,2072.576638,-1332.370696,-78907.836294
11244.199844,5477.523971,-5329.482782,-78141.740796
11244.202422,-2664.741391,-2664.741391,-75383.797003
11244.205000,5477.523971,-3701.029710,-79520.712692
11244.207578,2516.700203,-6661.853478,-77682.083497
11244.210156,6809.894666,-3849.070898,-76915.987999
11244.212734,2664.741391,-7402.059420,-78601.398095
11244.215313,18653.189738,-6069.688724,-78448.178995
11244.217891,2812.782580,-5477.523971,-77069.207099
11244.220469,-3701.029710,296.082377,-76456.330700
11244.223047,6661.853478,-3108.864956,-80440.027290
11244.225625,0.000000,-3404.947333,-76609.549800
11244.228203,1184.329507,1332.370696,-78141.740796
11244.230781,7402.059420,-5181.441594,-77988.521696
11244.233359,-3997.112087,444.123565,-76303.111601
11244.235937,-14359.995275,5329.482782,-76303.111601
11244.238516,-7254.018232,6809.894666,-77835.302597
11244.241095,3108.864956,2368.659014,-77682.083497
11244.243674,-2812.782580,4293.194464,-76762.768900
11244.246254,6809.894666,5329.482782,-78448.178995
11244.248833,-3404.947333,-1924.535449,-76915.987999
11244.251412,-11843.295072,444.123565,-75077.358804
11244.253991,-6069.688724,-1184.329507,-79827.150892
11244.256570,2812.782580,3404.947333,-79061.055394
11244.259149,-888.247130,1776.494261,-77835.302597
11244.261728,-5033.400406,3552.988522,-79673.931792
11244.264307,3552.988522,-1036.288319,-78601.398095
11244.266886,-5477.523971,1332.370696,-76915.987999
11244.269465,-4293.194464,3404.947333,-78601.398095
11244.272044,5181.441594,296.082377,-80133.589091
11244.274624,-2960.823768,-592.164754,-77375.645298
11244.277203,-8734.430116,3849.070898,-74311.263306
11244.279782,-13915.871710,1924.535449,-79061.055394
11244.282361,-5921.647536,5033.400406,-78448.178995
11244.284940,-7846.182985,5033.400406,-78294.959896
11244.287519,-592.164754,5921.647536,-78141.740796
11244.290098,11399.171507,-4737.318029,-79214.274493
11244.292677,-2812.782580,-3404.947333,-76149.892501
11244.295256,-7254.018232,2516.700203,-78907.836294
11244.297835,4737.318029,-7254.018232,-79214.274493
11244.300414,444.123565,-2368.659014,-75383.797003
11244.302994,2960.823768,-3849.070898,-76762.768900
11244.305573,7402.059420,-5921.647536,-79214.274493
11244.308152,8290.306550,-4885.359217,-76762.768900
11244.310731,-7402.059420,-6365.771101,-76303.111601
11244.313310,1924.535449,-3108.864956,-77835.302597
11244.315889,3997.112087,-6661.853478,-76762.768900
11244.318468,1332.370696,-3256.906145,-77222.426198
11244.321047,8734.430116,-1924.535449,-77988.521696
11244.323626,3849.070898,-7846.182985,-77835.302597
11244.326205,1036.288319,-1332.370696,-75383.797003
11244.328785,-3849.070898,-1628.453072,-78754.617194
11244.331364,3701.029710,-3108.864956,-77988.521696
11244.333943,-2368.659014,-1332.370696,-76915.987999
11244.336522,-1332.370696,-1924.535449,-78754.617194
11244.339101,9622.677246,-7994.224174,-78448.178995
11244.341680,-3849.070898,-5181.441594,-76149.892501
11244.344260,6365.771101,-4589.276840,-79980.369991
11244.346840,13323.706956,-10510.924376,-80593.246390
11244.349420,8734.430116,-1332.370696,-75537.016103
11244.352000,-2960.823768,-5033.400406,-78141.740796
11244.354580,2516.700203,-2368.659014,-76915.987999
11244.357160,1184.329507,-3256.906145,-77375.645298
11244.359739,-4293.194464,888.247130,-76762.768900
11244.362319,6661.853478,-2664.741391,-80286.808190
11244.364899,888.247130,-740.205942,-75996.673402
11244.367479,-14508.036463,4441.235652,-76456.330700
11244.370059,-8734.430116,6957.935855,-79061.055394
11244.372639,148.041188,444.123565,-77988.521696
11244.375219,-5477.523971,4737.318029,-76762.768900
11244.377798,3256.906145,4885.359217,-78907.836294
11244.380378,1480.411884,-740.205942,-77682.083497
11244.382958,-10955.047942,-296.082377,-75996.673402
11244.385538,-5921.647536,-1628.453072,-79673.931792
11244.388118,-2664.741391,-592.164754,-77069.207099
11244.390698,-5181.441594,2516.700203,-77528.864398
11244.393278,-4293.194464,4885.359217,-77835.302597
11244.395857,592.164754,-1184.329507,-78601.398095
11244.398437,-1036.288319,2072.576638,-75996.673402
11244.401017,-8734.430116,-444.123565,-77528.864398
11244.403597,7402.059420,4293.194464,-78754.617194
11244.406177,-1628.453072,-1036.288319,-77375.645298
11244.408757,-9030.512492,5033.400406,-77682.083497
11244.411337,740.205942,2368.659014,-77222.426198
11244.413916,-15100.201217,5329.482782,-75230.577904
11244.416496,-10510.924376,8290.306550,-75996.673402
11244.419076,1628.453072,3404.947333,-79827.150892
11244.421656,9622.677246,-740.205942,-76456.330700
11244.424236,-4441.235652,-1924.535449,-76609.549800
11244.426816,-4441.235652,1924.535449,-78754.617194
11244.429396,296.082377,-4293.194464,-77069.207099
11244.431976,-2368.659014,-5033.400406,-76149.892501
11244.434555,8290.306550,-2368.659014,-78294.959896
11244.437135,5181.441594,-5181.441594,-78294.959896
11244.439715,4589.276840,-5773.606348,-77069.207099
11244.442295,-4441.235652,-4737.318029,-78601.398095
11244.444874,2960.823768,-4589.276840,-77988.521696
11244.447454,-296.082377,-2516.700203,-77528.864398
11244.450033,2960.823768,-5773.606348,-80899.684589
11244.452612,10955.047942,-592.164754,-78294.959896
11244.455191,5477.523971,-4441.235652,-77835.302597
11244.457771,-2812.782580,-1184.329507,-78601.398095
11244.460350,2220.617826,-7846.182985,-79061.055394
11244.462929,3849.070898,-6365.771101,-77835.302597
11244.465508,-1924.535449,888.247130,-77069.207099
11244.468088,4145.153275,-7698.141797,-78294.959896
11244.470667,4589.276840,-1924.535449,-75690.235202
11244.473246,-2220.617826,-11103.089130,-76609.549800
11244.475825,6069.688724,-3256.906145,-79214.274493
11244.478405,10658.965565,-8882.471304,-78448.178995
11244.480984,2516.700203,-3701.029710,-76303.111601
11244.483563,9474.636058,-5625.565159,-79061.055394
11244.486142,2960.823768,-5625.565159,-77682.083497
11244.488722,-3404.947333,-1332.370696,-76456.330700
11244.491301,-1332.370696,-296.082377,-80440.027290
11244.493880,7994.224174,-5477.523971,-78907.836294
11244.496460,-3552.988522,1628.453072,-75230.577904
11244.499039,-11399.171507,5773.606348,-78448.178995
11244.501618,-1036.288319,5033.400406,-78601.398095
11244.504197,-8438.347739,1184.329507,-77682.083497
11244.506777,-3997.112087,4589.276840,-77069.207099
11244.509356,4737.318029,3404.947333,-78294.959896
11244.511935,-1184.329507,-1480.411884,-75996.673402
11244.514514,-12139.377449,2368.659014,-75537.016103
11244.517094,-3404.947333,-2368.659014,-79520.712692
11244.519673,-1036.288319,2960.823768,-76915.987999
11244.522252,-1480.411884,4441.235652,-78141.740796
11244.524831,-296.082377,3404.947333,-77835.302597
11244.527411,-444.123565,1332.370696,-76915.987999
11244.529990,-6957.935855,-1036.288319,-75537.016103
11244.532569,-1924.535449,4145.153275,-78601.398095
11244.535149,3849.070898,-1480.411884,-79673.931792
11244.537728,-6957.935855,4293.194464,-77222.426198
11244.540307,-6661.853478,4293.194464,-79061.055394
11244.542886,-9622.677246,2664.741391,-76609.549800
11244.545466,-11843.295072,6365.771101,-76762.768900
11244.548045,-6809.894666,5181.441594,-78907.836294
11244.550623,7402.059420,3256.906145,-79061.055394
11244.553202,3256.906145,-1628.453072,-76915.987999
11244.555781,-9178.553681,2368.659014,-77375.645298
11244.558360,592.164754,-5477.523971,-79980.369991
11244.560939,1480.411884,-3404.947333,-74770.920605
11244.563518,592.164754,-4441.235652,-78294.959896
11244.566097,11103.089130,-3404.947333,-79673.931792
11244.568676,9918.759623,-5773.606348,-78907.836294
11244.571255,-2812.782580,-6217.729913,-77988.521696
11244.573834,4737.318029,-2812.782580,-77222.426198
11244.576413,4589.276840,-4885.359217,-77222.426198
11244.578992,-592.164754,-4589.276840,-75996.673402
11244.581570,7402.059420,-2664.741391,-78601.398095
11244.584149,9030.512492,-6069.688724,-77222.426198
11244.586728,-888.247130,-2516.700203,-75996.673402
11244.589307,-1332.370696,-5033.400406,-79367.493593
11244.591886,4293.194464,-3404.947333,-77069.207099
11244.594465,-4737.318029,-2072.576638,-76303.111601
11244.597044,2664.741391,-3256.906145,-78294.959896
11244.599623,9178.553681,-3849.070898,-77835.302597
11244.602202,444.123565,-9178.553681,-77375.645298
11244.604781,2812.782580,-2368.659014,-77069.207099
11244.607360,13619.789333,-10214.842000,-80899.684589
11244.609939,5773.606348,-2220.617826,-76149.892501
11244.612517,2664.741391,-5625.565159,-78294.959896
11244.615096,6069.688724,-3108.864956,-77528.864398
11244.617675,444.123565,-3701.029710,-77222.426198
11244.620254,-6069.688724,1924.535449,-79214.274493
11244.622833,6365.771101,-3404.947333,-78907.836294
11244.625412,-2812.782580,2220.617826,-78601.398095
11244.627991,-15396.283594,4737.318029,-77528.864398
11244.630570,-4885.359217,7846.182985,-76915.987999
11244.633149,0.000000,1332.370696,-76915.987999
11244.635728,-3404.947333,5921.647536,-75843.454302
11244.638307,2664.741391,1628.453072,-80133.589091
11244.640886,148.041188,2220.617826,-76303.111601
11244.643464,-11103.089130,-2516.700203,-75843.454302
11244.646043,-7698.141797,2368.659014,-77222.426198
11244.648622,148.041188,-1480.411884,-78601.398095
11244.651201,-1628.453072,4145.153275,-77528.864398
11244.653780,-5773.606348,5477.523971,-78294.959896
11244.656359,1628.453072,-3404.947333,-79673.931792
11244.658937,-1184.329507,3552.988522,-77069.207099
11244.661516,-1776.494261,-1036.288319,-79061.055394
11244.664095,6069.688724,4145.153275,-77835.302597
11244.666674,-5921.647536,2072.576638,-76303.111601
11244.669253,-15248.242405,4885.359217,-75230.577904
11244.671831,-7402.059420,4885.359217,-78448.178995
11244.674410,-8438.347739,3256.906145,-76762.768900
11244.676989,-2516.700203,6069.688724,-77682.083497
11244.679568,7105.977043,-1776.494261,-79367.493593
11244.682146,1332.370696,888.247130,-75843.454302
11244.684725,-11251.130318,0.000000,-77069.207099
11244.687304,4293.194464,-6365.771101,-77988.521696
11244.689883,1924.535449,-4293.194464,-77222.426198
11244.692462,6957.935855,-3404.947333,-76149.892501
11244.695040,2664.741391,-5921.647536,-77222.426198
11244.697619,7846.182985,-4293.194464,-78601.398095
11244.700198,-1628.453072,-5477.523971,-76149.892501
11244.702777,-3108.864956,-2960.823768,-78294.959896
11244.705355,4589.276840,-4145.153275,-78294.959896
11244.707934,6809.894666,-2220.617826,-76456.330700
11244.710513,-296.082377,-2368.659014,-77222.426198
11244.713092,6513.812290,-3997.112087,-79367.493593
11244.715671,1776.494261,-5625.565159,-78141.740796
11244.718249,-4145.153275,-2812.782580,-77528.864398
11244.720828,1628.453072,-296.082377,-78448.178995
11244.723407,7698.141797,-6069.688724,-77682.083497
11244.725986,-5033.400406,-5033.400406,-76609.549800
11244.728564,7105.977043,-8142.265362,-77988.521696
11244.731143,7105.977043,-6217.729913,-76456.330700
11244.733722,3849.070898,-7698.141797,-78448.178995
11244.736301,6513.812290,-3849.070898,-80133.589091
11244.738880,10658.965565,-6661.853478,-78907.836294
11244.741458,2664.741391,-5625.565159,-76915.987999
11244.744037,-740.205942,-888.247130,-77069.207099
11244.746616,2072.576638,0.000000,-78907.836294
11244.749195,2664.741391,-1036.288319,-77222.426198
11244.751773,-9030.512492,4737.318029,-78907.836294
11244.754351,-2516.700203,3701.029710,-78448.178995
11244.756928,-6513.812290,8142.265362,-76609.549800
11244.759506,-4145.153275,1628.453072,-78448.178995
11244.762083,1924.535449,6809.894666,-77988.521696
11244.764661,2516.700203,740.205942,-77835.302597
11244.767238,-9918.759623,-2220.617826,-76915.987999
11244.769815,-3701.029710,1184.329507,-78754.617194
11244.772393,-4885.359217,0.000000,-76149.892501
11244.774970,-3108.864956,2220.617826,-76762.768900
11244.777548,2812.782580,0.000000,-79214.274493
11244.780125,888.247130,6661.853478,-75383.797003
11244.782702,-3552.988522,-2516.700203,-77835.302597
11244.785280,-3256.906145,148.041188,-79061.055394
11244.787857,740.205942,444.123565,-79673.931792
11244.790435,-1776.494261,1184.329507,-78294.959896
11244.793012,-7994.224174,6365.771101,-77069.207099
11244.795590,-6513.812290,148.041188,-79980.369991
11244.798167,-14804.118840,8290.306550,-76303.111601
11244.800744,-9474.636058,5033.400406,-79673.931792
11244.803322,5625.565159,2368.659014,-78907.836294
11244.805899,5181.441594,-2220.617826,-77222.426198
11244.808477,-11399.171507,444.123565,-77222.426198
11244.811054,1924.535449,-3404.947333,-77528.864398
11244.813632,1924.535449,-8586.388927,-76149.892501
11244.816209,-1924.535449,-2664.741391,-75690.235202
11244.818786,11843.295072,-4145.153275,-79367.493593
11244.821364,7994.224174,-7846.182985,-78141.740796
11244.823941,2960.823768,-6069.688724,-75996.673402
11244.826519,148.041188,-6217.729913,-77682.083497
11244.829096,2220.617826,-3849.070898,-76456.330700
11244.831674,1184.329507,-1924.535449,-75843.454302
11244.834251,5625.565159,-1036.288319,-77682.083497
11244.836828,6809.894666,-6069.688724,-79061.055394
11244.839406,-148.041188,-5477.523971,-77528.864398
11244.841983,-1480.411884,0.000000,-77835.302597
11244.844561,3997.112087,-7698.141797,-78294.959896
11244.847138,296.082377,-1480.411884,-77988.521696
11244.849715,-296.082377,-2516.700203,-78141.740796
11244.852293,9770.718434,-3849.070898,-77682.083497
11244.854870,5477.523971,-5625.565159,-75690.235202
11244.857447,2368.659014,-8438.347739,-77528.864398
11244.860023,10510.924376,-3108.864956,-78601.398095
11244.862600,5033.400406,-6217.729913,-77682.083497
11244.865176,-1776.494261,148.041188,-75843.454302
11244.867753,6809.894666,-6217.729913,-78448.178995
11244.870329,-2220.617826,-2072.576638,-75843.454302
11244.872906,-444.123565,-296.082377,-77069.207099
11244.875482,888.247130,1480.411884,-79367.493593
11244.878059,-3256.906145,4293.194464,-77988.521696
11244.880635,-13471.748144,6365.771101,-77682.083497
11244.883212,1480.411884,6661.853478,-79367.493593
11244.885788,2220.617826,296.082377,-78141.740796
11244.888365,-5625.565159,4885.359217,-76303.111601
11244.890942,-1184.329507,592.164754,-80286.808190
11244.893518,-4589.276840,-3701.029710,-78294.959896
11244.896095,-9770.718434,592.164754,-76609.549800
11244.898671,-5921.647536,1480.411884,-78448.178995
11244.901248,7402.059420,888.247130,-78907.836294
11244.903824,0.000000,3997.112087,-76915.987999
11244.906401,-6809.894666,296.082377,-76762.768900
11244.908977,2220.617826,-2072.576638,-79520.712692
11244.911554,-3404.947333,1036.288319,-77222.426198
11244.914130,-3849.070898,3997.112087,-79367.493593
11244.916707,1776.494261,2664.741391,-78754.617194
11244.919283,-9770.718434,3256.906145,-77682.083497
11244.921860,-18653.189738,4293.194464,-75230.577904
11244.924436,-2368.659014,6513.812290,-78601.398095
11244.927013,4885.359217,888.247130,-78294.959896
11244.929589,888.247130,-1036.288319,-76303.111601
11244.932166,-2516.700203,1776.494261,-79520.712692
11244.934742,1184.329507,-6069.688724,-75383.797003
11244.937319,-3108.864956,-6957.935855,-75690.235202
11244.939854,1036.288319,-4145.153275,-79367.493593
11244.942390,11251.130318,-3701.029710,-76762.768900
11244.944926,7698.141797,-7698.141797,-78294.959896
11244.947461,-148.041188,-1480.411884,-76456.330700
11244.949997,4737.318029,-7550.100608,-78754.617194
11244.952532,-3997.112087,-2960.823768,-77682.083497
11244.955068,3552.988522,-1036.288319,-78754.617194
11244.957604,10066.800811,-5329.482782,-79980.369991
11244.960139,7254.018232,-2072.576638,-75996.673402
11244.962675,-888.247130,-6365.771101,-78294.959896
11244.965211,888.247130,444.123565,-77375.645298
11244.967746,592.164754,-4145.153275,-77835.302597
11244.970282,-888.247130,-5477.523971,-77835.302597
11244.972817,3849.070898,-1184.329507,-77222.426198
11244.975353,6069.688724,-8734.430116,-77528.864398
11244.977889,-1480.411884,-3108.864956,-75077.358804
11244.980424,12731.542202,-8438.347739,-80899.684589
11244.982960,3404.947333,-6661.853478,-77222.426198
11244.985495,4589.276840,-5181.441594,-76303.111601
11244.988031,4145.153275,-2516.700203,-77069.207099
11244.990567,6513.812290,-2516.700203,-76762.768900
11244.993102,-2664.741391,148.041188,-79061.055394
11244.995638,-2072.576638,-1480.411884,-79673.931792
11244.998173,-4293.194464,3404.947333,-80440.027290
11245.000709,-13027.624579,5773.606348,-74924.139704
11245.003245,-5033.400406,9622.677246,-77528.864398
11245.005780,2368.659014,-444.123565,-80440.027290
11245.008316,-2072.576638,3552.988522,-76303.111601
11245.010852,-2664.741391,3108.864956,-78907.836294
11245.013387,-5033.400406,296.082377,-77988.521696
11245.015923,-5181.441594,-3701.029710,-77069.207099
11245.018458,-7402.059420,1184.329507,-75690.235202
11245.020994,4589.276840,1480.411884,-78754.617194
11245.023530,1480.411884,2812.782580,-76762.768900
11245.026065,-3404.947333,444.123565,-76149.892501
11245.028601,-444.123565,1480.411884,-76762.768900
11245.031136,1628.453072,-3849.070898,-77222.426198
11245.033672,-9770.718434,6809.894666,-76915.987999
11245.036208,-444.123565,3552.988522,-77988.521696
11245.038743,-4293.194464,2812.782580,-78448.178995
11245.041286,-13915.871710,6957.935855,-74311.263306
11245.043830,-12287.418637,3108.864956,-79061.055394
11245.046373,5329.482782,5625.565159,-77682.083497
11245.048916,2368.659014,-592.164754,-77375.645298
11245.051459,-2220.617826,1184.329507,-77682.083497
11245.054002,4441.235652,-888.247130,-78907.836294
11245.056545,-6365.771101,-8142.265362,-76915.987999
11245.059088,-3997.112087,-3701.029710,-76149.892501
11245.061631,9326.594869,-3552.988522,-78601.398095
11245.064174,7994.224174,-6513.812290,-76303.111601
11245.066717,2960.823768,-3849.070898,-76609.549800
11245.069261,2368.659014,-6513.812290,-78907.836294
11245.071804,-148.041188,-1480.411884,-77222.426198
11245.074347,-3997.112087,-1776.494261,-77375.645298
11245.076890,8734.430116,-3108.864956,-79673.931792
11245.079433,5921.647536,-2516.700203,-77375.645298
11245.081976,-296.082377,-9474.636058,-77069.207099
11245.084519,-3108.864956,2072.576638,-78294.959896
11245.087062,4441.235652,-5773.606348,-79061.055394
11245.089605,-1628.453072,-2072.576638,-76762.768900
11245.092148,4145.153275,-3997.112087,-78448.178995
11245.094691,8734.430116,-7550.100608,-77682.083497
11245.097235,1924.535449,-4589.276840,-75230.577904
11245.099778,8882.471304,-8734.430116,-79061.055394
11245.102321,6957.935855,-4145.153275,-79673.931792
11245.104864,6365.771101,-6809.894666,-78601.398095
11245.107407,-592.164754,-4589.276840,-77222.426198
11245.109950,3256.906145,592.164754,-76915.987999
11245.112493,1036.288319,-4441.235652,-78448.178995
11245.115036,-7698.141797,1924.535449,-76303.111601
11245.117579,-6069.688724,6809.894666,-81052.903688
11245.120122,-7846.182985,3552.988522,-77222.426198
11245.122666,-3701.029710,6069.688724,-75230.577904
11245.125209,-4145.153275,3849.070898,-78141.740796
11245.127752,7846.182985,2960.823768,-77682.083497
11245.130295,-4293.194464,740.205942,-77835.302597
11245.132838,-8882.471304,296.082377,-77835.302597
11245.135381,-1332.370696,-1480.411884,-78907.836294
11245.137924,-2368.659014,1480.411884,-76915.987999
11245.140467,-888.247130,1776.494261,-77988.521696
11245.143017,3849.070898,2072.576638,-78294.959896
11245.145566,-444.123565,888.247130,-75843.454302
11245.148115,-3256.906145,-148.041188,-76303.111601
11245.150665,-592.164754,3256.906145,-77988.521696
11245.153214,3701.029710,-1332.370696,-78754.617194
11245.155763,-11251.130318,3849.070898,-75077.358804
11245.158313,-4737.318029,8586.388927,-77222.426198
11245.160862,-13471.748144,3701.029710,-76149.892501
11245.163411,-9622.677246,6809.894666,-76456.330700
11245.165961,6365.771101,1924.535449,-79980.369991
11245.168510,5921.647536,-1924.535449,-76149.892501
11245.171059,-1480.411884,592.164754,-76456.330700
11245.173609,-4145.153275,-7698.141797,-76762.768900
11245.176158,5921.647536,-7994.224174,-79520.712692
11245.178708,2812.782580,-3552.988522,-76609.549800
11245.181257,4441.235652,-3108.864956,-78141.740796
11245.183806,13027.624579,-7105.977043,-80286.808190
11245.186356,0.000000,-3849.070898,-76303.111601
11245.188905,-4441.235652,-1924.535449,-79214.274493
11245.191454,3701.029710,-4145.153275,-80286.808190
11245.194004,6069.688724,-5181.441594,-79061.055394
11245.196553,2664.741391,-3256.906145,-76303.111601
11245.199102,5773.606348,-6069.688724,-77375.645298
11245.201652,3108.864956,-1628.453072,-75996.673402
11245.204201,-7402.059420,-4589.276840,-76915.987999
11245.206750,2072.576638,-1332.370696,-78448.178995
11245.209300,4737.318029,-6069.688724,-77375.645298
11245.211849,-740.205942,-3997.112087,-75843.454302
11245.214399,7994.224174,-8882.471304,-78448.178995
11245.216948,11251.130318,-9326.594869,-79214.274493
11245.219497,3404.947333,-4145.153275,-77222.426198
11245.222047,296.082377,-7254.018232,-79980.369991
11245.224596,9918.759623,-3701.029710,-78141.740796
11245.227145,296.082377,-3849.070898,-77682.083497
11245.229695,-4293.194464,888.247130,-78141.740796
11245.232244,7550.100608,-5181.441594,-79673.931792
11245.234793,-14211.954086,7254.018232,-76609.549800
11245.237343,-8438.347739,6513.812290,-78907.836294
11245.239892,-2960.823768,3552.988522,-80133.589091
11245.242441,4441.235652,3256.906145,-75537.016103
11245.244957,-5477.523971,2516.700203,-76609.549800
11245.247473,2812.782580,1184.329507,-79214.274493
11245.249989,-3997.112087,-1184.329507,-76762.768900
11245.252505,-13471.748144,-1924.535449,-76762.768900
11245.255021,-2220.617826,1924.535449,-79061.055394
11245.257537,1628.453072,-1332.370696,-77069.207099
11245.260053,-2220.617826,7105.977043,-75843.454302
11245.262569,-1036.288319,3849.070898,-78601.398095
11245.265085,3701.029710,-3404.947333,-77835.302597
11245.267601,-4589.276840,2664.741391,-76915.987999
11245.270116,-5625.565159,3552.988522,-79520.712692
11245.272632,2516.700203,2072.576638,-80133.589091
11245.275148,-15100.201217,3849.070898,-76456.330700
11245.277664,-9770.718434,8290.306550,-77528.864398
11245.280180,-2072.576638,3256.906145,-77528.864398
11245.282696,0.000000,3849.070898,-77375.645298
11245.285212,-5625.565159,-592.164754,-77682.083497
11245.287728,296.082377,1332.370696,-78141.740796
11245.290244,4441.235652,-7402.059420,-74924.139704
11245.292760,-3256.906145,-8438.347739,-77222.426198
11245.295276,10362.883188,-4145.153275,-79061.055394
11245.297792,6069.688724,-5773.606348,-78294.959896
11245.300307,2960.823768,-4145.153275,-76915.987999
11245.302823,4885.359217,-7402.059420,-78141.740796
11245.305339,444.123565,-3997.112087,-77375.645298
11245.307855,-3108.864956,592.164754,-75996.673402
11245.310371,2516.700203,-4145.153275,-79827.150892
11245.312887,11547.212695,-3108.864956,-77528.864398
11245.315403,-2812.782580,-5921.647536,-78294.959896
11245.317919,-1480.411884,-2664.741391,-78448.178995
11245.320435,7550.100608,-3256.906145,-77835.302597
11245.322951,-6809.894666,-5181.441594,-76609.549800
11245.325467,7698.141797,-2664.741391,-79827.150892
11245.327983,6957.935855,-7550.100608,-80133.589091
11245.330498,9326.594869,-4293.194464,-76456.330700
11245.333014,1036.288319,-7402.059420,-79367.493593
11245.335530,7846.182985,-4145.153275,-78448.178995
11245.338046,6661.853478,-5921.647536,-77988.521696
11245.340562,-2960.823768,-7698.141797,-77528.864398
11245.343078,7994.224174,-592.164754,-78907.836294
11245.345608,-2220.617826,-2516.700203,-77222.426198
11245.348136,-7846.182985,3849.070898,-77682.083497
11245.350664,-7698.141797,9326.594869,-79214.274493
11245.353191,-6217.729913,5477.523971,-76149.892501
11245.355719,-7402.059420,5329.482782,-77069.207099
11245.358247,888.247130,3701.029710,-79061.055394
11245.360775,3404.947333,-1332.370696,-77528.864398
11245.363303,-5181.441594,444.123565,-74617.701505
11245.365831,-4737.318029,-5181.441594,-79980.369991
11245.368359,-2072.576638,1036.288319,-77222.426198
11245.370887,-5773.606348,888.247130,-75996.673402
11245.373415,-2220.617826,3552.988522,-77988.521696
11245.375943,5921.647536,5033.400406,-78294.959896
11245.378471,-592.164754,-3552.988522,-78294.959896
11245.380999,-10510.924376,3701.029710,-76915.987999
11245.383527,8438.347739,592.164754,-79520.712692
11245.386055,-7994.224174,4293.194464,-76915.987999
11245.388583,-12287.418637,3404.947333,-79214.274493
11245.391111,-7994.224174,4885.359217,-77835.302597
11245.393638,-5921.647536,7402.059420,-75843.454302
11245.396166,-3404.947333,1480.411884,-77528.864398
11245.398694,2664.741391,4145.153275,-77528.864398
11245.401222,148.041188,-148.041188,-76762.768900
11245.403750,-3849.070898,-5625.565159,-75077.358804
11245.406278,5921.647536,-6365.771101,-78141.740796
11245.408806,1480.411884,-11103.089130,-77222.426198
11245.411334,4293.194464,-3404.947333,-75383.797003
11245.413862,10807.006753,-6957.935855,-80746.465489
11245.416390,7254.018232,-5181.441594,-75690.235202
11245.418918,-2368.659014,-3108.864956,-76149.892501
11245.421446,-3997.112087,-2960.823768,-79673.931792
11245.423974,10362.883188,-592.164754,-79061.055394
11245.426502,4441.235652,-4589.276840,-77528.864398
11245.429030,0.000000,1036.288319,-77222.426198
11245.431558,6217.729913,-10510.924376,-79827.150892
11245.434085,-4293.194464,-1036.288319,-76149.892501
11245.436613,592.164754,-2812.782580,-78448.178995
11245.439141,5773.606348,-5033.400406,-80286.808190
11245.441669,6957.935855,-5477.523971,-77069.207099
11245.444197,2812.782580,-6809.894666,-77375.645298
11245.446735,9030.512492,-3404.947333,-77835.302597
11245.449273,5329.482782,-5921.647536,-76609.549800
11245.451812,-444.123565,-8142.265362,-76915.987999
11245.454350,9770.718434,-5477.523971,-79827.150892
11245.456888,444.123565,-5625.565159,-77528.864398
11245.459426,-2960.823768,1184.329507,-75843.454302
11245.461964,-1480.411884,740.205942,-80746.465489
11245.464502,-6217.729913,5625.565159,-78601.398095
11245.467040,-7994.224174,12139.377449,-75537.016103
11245.469578,-6365.771101,2664.741391,-79980.369991
11245.472116,7698.141797,4145.153275,-78754.617194
11245.474655,-2812.782580,0.000000,-78907.836294
11245.477193,-3701.029710,888.247130,-78448.178995
11245.479731,-1776.494261,-5477.523971,-79367.493593
11245.482269,-14211.954086,2664.741391,-76303.111601
11245.484807,-5033.400406,3108.864956,-76609.549800
11245.487345,3997.112087,592.164754,-79673.931792
11245.489883,2664.741391,5921.647536,-74311.263306
11245.492421,-5477.523971,-3552.988522,-78141.740796
11245.494959,-2072.576638,2960.823768,-78141.740796
11245.497498,1036.288319,1332.370696,-77069.207099
11245.500036,-11695.253884,4441.235652,-77528.864398
11245.502574,-2220.617826,1036.288319,-77988.521696
11245.505112,-10066.800811,5773.606348,-76149.892501
11245.507650,-7254.018232,8142.265362,-74311.263306
11245.510188,2220.617826,0.000000,-80133.589091
11245.512726,4589.276840,4589.276840,-78448.178995
11245.515264,-6809.894666,296.082377,-77528.864398
11245.517802,888.247130,-6661.853478,-76915.987999
11245.520341,8734.430116,-10658.965565,-77988.521696
11245.522879,4293.194464,-8734.430116,-76456.330700
11245.525417,1184.329507,-3404.947333,-77222.426198
11245.527955,10362.883188,-6069.688724,-79980.369991
11245.530493,2960.823768,-5921.647536,-76762.768900
11245.533031,-2664.741391,-2664.741391,-76456.330700
11245.535569,1036.288319,-592.164754,-79061.055394
11245.538107,13027.624579,-3256.906145,-77528.864398
11245.540645,-1924.535449,-2960.823768,-76456.330700
11245.543184,2072.576638,-5921.647536,-78294.959896
11245.545722,4589.276840,-5181.441594,-77988.521696
11245.548231,-4737.318029,-3849.070898,-76149.892501
11245.550740,3256.906145,-2664.741391,-79061.055394
11245.553250,8734.430116,-6069.688724,-79673.931792
11245.555759,7846.182985,-4145.153275,-75996.673402
11245.558268,3256.906145,-5477.523971,-77682.083497
11245.560777,9030.512492,-3701.029710,-78141.740796
11245.563287,2516.700203,-8586.388927,-77069.207099
11245.565796,-1332.370696,-7846.182985,-77069.207099
11245.568305,6957.935855,-1628.453072,-78448.178995
11245.570815,1036.288319,-3404.947333,-78754.617194
11245.573324,-5477.523971,3997.112087,-76762.768900
11245.575833,-8882.471304,7105.977043,-79827.150892
11245.578343,-7994.224174,7698.141797,-77222.426198
11245.580852,-6957.935855,6365.771101,-76609.549800
11245.583361,444.123565,5477.523971,-78294.959896
11245.585871,3849.070898,-2072.576638,-79367.493593
11245.588380,-5477.523971,-1776.494261,-76456.330700
11245.590889,-2516.700203,-2516.700203,-78141.740796
11245.593398,-9474.636058,-1332.370696,-77528.864398
11245.595908,-8142.265362,1332.370696,-76149.892501
11245.598417,-4441.235652,2960.823768,-79673.931792
11245.600926,4589.276840,1332.370696,-78448.178995
11245.603436,-3256.906145,1776.494261,-76149.892501
11245.605945,-3701.029710,5033.400406,-78141.740796
11245.608454,2960.823768,148.041188,-79367.493593
11245.610964,-4885.359217,3404.947333,-77528.864398
11245.613473,-15248.242405,2220.617826,-77835.302597
11245.615982,-2220.617826,5477.523971,-76456.330700
11245.618492,-6957.935855,5329.482782,-77375.645298
11245.621001,-2960.823768,740.205942,-76303.111601
11245.623510,2368.659014,4589.276840,-78907.836294
11245.626019,-1332.370696,-2960.823768,-77682.083497
11245.628529,740.205942,-5773.606348,-73851.606007
11245.631038,2960.823768,-10510.924376,-77682.083497
11245.633547,8734.430116,-7698.141797,-75383.797003
11245.636057,1628.453072,-7402.059420,-77682.083497
11245.638566,7402.059420,-5773.606348,-79520.712692
11245.641075,2812.782580,-6661.853478,-76915.987999
11245.643585,-2368.659014,-5921.647536,-78754.617194
11245.646094,1184.329507,3404.947333,-76762.768900
11245.648618,10362.883188,-5033.400406,-80440.027290
11245.651141,3256.906145,592.164754,-75690.235202
11245.653665,-740.205942,-6957.935855,-79520.712692
11245.656189,3256.906145,-6217.729913,-78294.959896
11245.658713,-1036.288319,444.123565,-75230.577904
11245.661236,-1924.535449,-5773.606348,-79520.712692
11245.663760,8882.471304,-2960.823768,-77222.426198
11245.666284,9030.512492,-7698.141797,-78754.617194
11245.668807,2220.617826,-2664.741391,-77682.083497
11245.671331,10066.800811,-4737.318029,-79520.712692
11245.673855,8290.306550,-8734.430116,-76762.768900
11245.676379,-2664.741391,-10066.800811,-75843.454302
11245.678902,2220.617826,-1184.329507,-78141.740796
11245.681426,2960.823768,-3256.906145,-77222.426198
11245.683950,-7402.059420,2812.782580,-75843.454302
11245.686473,-6513.812290,11843.295072,-79061.055394
11245.688997,-4737.318029,7254.018232,-78141.740796
11245.691521,-3701.029710,6809.894666,-75996.673402
11245.694044,-3256.906145,1628.453072,-80133.589091
11245.696568,5181.441594,2960.823768,-79061.055394
11245.699092,-3404.947333,-4441.235652,-78294.959896
11245.701616,-9178.553681,-1628.453072,-79061.055394
11245.704139,-4885.359217,-3997.112087,-79827.150892
11245.706663,-3701.029710,5033.400406,-77682.083497
11245.709187,-2072.576638,8438.347739,-76149.892501
11245.711710,148.041188,-444.123565,-77528.864398
11245.714234,740.205942,4293.194464,-76303.111601
11245.716758,-9178.553681,-1332.370696,-78754.617194
11245.719282,-296.082377,4885.359217,-78448.178995
11245.721805,-5773.606348,888.247130,-77069.207099
11245.724329,-14952.160028,5477.523971,-74770.920605
11245.726853,-5181.441594,3552.988522,-78907.836294
11245.729376,-444.123565,4293.194464,-78601.398095
11245.731900,-2368.659014,2960.823768,-77835.302597
11245.734424,-4885.359217,4145.153275,-80133.589091
11245.736948,6661.853478,-3552.988522,-78448.178995
11245.739471,2220.617826,-7846.182985,-74004.825107
11245.741995,4441.235652,-6957.935855,-76303.111601
11245.744519,13027.624579,-12731.542202,-79061.055394
11245.747042,1480.411884,-7550.100608,-78754.617194
11245.749578,3701.029710,-6365.771101,-79673.931792
11245.752114,4885.359217,-2664.741391,-78294.959896
11245.754650,4737.318029,-2516.700203,-77222.426198
11245.757186,-3108.864956,148.041188,-75690.235202
11245.759722,9030.512492,-740.205942,-77988.521696
11245.762258,2368.659014,-4589.276840,-77222.426198
11245.764794,-3552.988522,-3701.029710,-78448.178995
11245.767330,1332.370696,-6957.935855,-79061.055394
11245.769866,4737.318029,-1776.494261,-76149.892501
11245.772402,-6069.688724,-5773.606348,-77069.207099
11245.774938,10510.924376,-6661.853478,-78141.740796
11245.777474,12731.542202,-3997.112087,-79367.493593
11245.780010,3108.864956,-7254.018232,-78294.959896
11245.782545,5625.565159,-3404.947333,-78907.836294
11245.785081,6957.935855,-12287.418637,-78294.959896
11245.787617,-4885.359217,-5033.400406,-76303.111601
11245.790153,7402.059420,-1776.494261,-79061.055394
11245.792689,-592.164754,-1480.411884,-77988.521696
11245.795225,-10807.006753,7994.224174,-76762.768900
11245.797761,-12879.583391,11399.171507,-78448.178995
11245.800297,888.247130,6661.853478,-79061.055394
11245.802833,592.164754,5773.606348,-75690.235202
11245.805369,-4441.235652,1776.494261,-78448.178995
11245.807905,6513.812290,-2072.576638,-79673.931792
11245.810441,-6957.935855,-5625.565159,-77835.302597
11245.812977,-13767.830521,1332.370696,-76762.768900
11245.815512,-1184.329507,-740.205942,-79827.150892
11245.818048,3849.070898,5921.647536,-77835.302597
11245.820584,-3997.112087,3701.029710,-74464.482406
11245.823120,-740.205942,1480.411884,-78141.740796
11245.825656,4293.194464,2664.741391,-79061.055394
11245.828192,-12731.542202,148.041188,-78754.617194
11245.830728,-2072.576638,5625.565159,-78141.740796
11245.833264,-6069.688724,-1924.535449,-77222.426198
11245.835800,-12583.501014,6365.771101,-73851.606007
11245.838336,740.205942,4589.276840,-79061.055394
11245.840872,592.164754,0.000000,-76915.987999
11245.843408,-3997.112087,6513.812290,-77988.521696
11245.845944,-2072.576638,-3701.029710,-78601.398095
11245.848480,9326.594869,-5921.647536,-76149.892501
11245.851025,4441.235652,-8586.388927,-76149.892501
11245.853570,2220.617826,-9178.553681,-78294.959896
11245.856115,14804.118840,-11251.130318,-81052.903688
11245.858660,-148.041188,-6809.894666,-77222.426198
11245.861205,-592.164754,-1184.329507,-76149.892501
11245.863750,4589.276840,-2960.823768,-78601.398095
11245.866296,7105.977043,-1776.494261,-76762.768900
11245.868841,-1036.288319,-2516.700203,-76456.330700
11245.871386,4145.153275,2220.617826,-77222.426198
11245.873931,2368.659014,-10214.842000,-77375.645298
11245.876476,-3108.864956,-4885.359217,-75996.673402
11245.879021,592.164754,-5625.565159,-78601.398095
11245.881566,6513.812290,-3404.947333,-75537.016103
11245.884112,-592.164754,-6957.935855,-75690.235202
11245.886657,9326.594869,-5181.441594,-79061.055394
11245.889202,14211.954086,-4145.153275,-79367.493593
11245.891747,2516.700203,-5329.482782,-77988.521696
11245.894292,888.247130,-5477.523971,-78907.836294
11245.896837,3552.988522,-7994.224174,-79214.274493
11245.899382,-444.123565,-5921.647536,-77222.426198
11245.901928,-1628.453072,5625.565159,-78294.959896
11245.904473,-6661.853478,5921.647536,-80593.246390
11245.907018,-11843.295072,12435.459826,-77528.864398
11245.909563,-8586.388927,8438.347739,-79520.712692
11245.912108,1184.329507,5181.441594,-77375.645298
11245.914653,4589.276840,1036.288319,-75843.454302
11245.917198,-7846.182985,-6069.688724,-77528.864398
11245.919744,-1480.411884,-148.041188,-78907.836294
11245.922289,-7846.182985,-4737.318029,-77375.645298
11245.924834,-7402.059420,6069.688724,-76456.330700
11245.927379,3701.029710,2812.782580,-80440.027290
11245.929924,3108.864956,1924.535449,-75383.797003
11245.932469,-4145.153275,2960.823768,-77222.426198
11245.935014,-9326.594869,740.205942,-78754.617194
11245.937560,-2368.659014,5625.565159,-79061.055394
11245.940105,-8586.388927,888.247130,-77835.302597
11245.942650,-14804.118840,5773.606348,-74004.825107
11245.945195,2812.782580,2664.741391,-77069.207099
11245.947740,-1184.329507,2516.700203,-76303.111601
11245.950285,-3701.029710,5921.647536,-77375.645298
11245.952838,-3701.029710,2368.659014,-79214.274493
11245.955392,6217.729913,-5181.441594,-75383.797003
11245.957945,2220.617826,-8142.265362,-75843.454302
11245.960498,5329.482782,-7994.224174,-76762.768900
11245.963051,10807.006753,-13323.706956,-77835.302597
11245.965604,1332.370696,-7994.224174,-77682.083497
11245.968157,1332.370696,-1184.329507,-77988.521696
11245.970710,1480.411884,-3701.029710,-79061.055394
11245.973263,1628.453072,-592.164754,-75996.673402
11245.975816,-592.164754,-1480.411884,-78448.178995
11245.978369,9326.594869,-1924.535449,-76915.987999
11245.980922,4737.318029,-2960.823768,-75230.577904
11245.983475,-7846.182985,-6809.894666,-78448.178995
11245.986028,4441.235652,-4885.359217,-79214.274493
11245.988581,1184.329507,-7254.018232,-78141.740796
11245.991134,2516.700203,-4145.153275,-74004.825107
11245.993688,11251.130318,-6661.853478,-79214.274493
11245.996241,10362.883188,-3701.029710,-76609.549800
11245.998794,3701.029710,-5477.523971,-79980.369991
11246.001347,6513.812290,-8586.388927,-79673.931792
11246.003900,1480.411884,-7402.059420,-77069.207099
11246.006453,-888.247130,-5329.482782,-77375.645298
11246.009006,-2960.823768,3404.947333,-77988.521696
11246.011559,-5033.400406,6217.729913,-77682.083497
11246.014112,-16136.489536,13619.789333,-76149.892501
11246.016665,-2516.700203,9178.553681,-80593.246390
11246.019218,148.041188,3256.906145,-77222.426198
11246.021771,-2516.700203,1924.535449,-74311.263306
11246.024324,1776.494261,-1480.411884,-78907.836294
11246.026877,740.205942,-3997.112087,-77988.521696
11246.029431,-6957.935855,-1628.453072,-76303.111601
11246.031984,-6513.812290,-1036.288319,-79061.055394
11246.034537,8142.265362,8290.306550,-80593.246390
11246.037090,0.000000,740.205942,-75996.673402
11246.039643,-3404.947333,4737.318029,-75537.016103
11246.042196,1184.329507,2072.576638,-78907.836294
11246.044749,-6217.729913,4737.318029,-79367.493593
11246.047302,-11251.130318,4885.359217,-79367.493593
11246.049855,-8290.306550,740.205942,-78907.836294
11246.052408,296.082377,2664.741391,-75077.358804
11246.054968,-5181.441594,2664.741391,-75077.358804
11246.057527,-1628.453072,6957.935855,-78754.617194
11246.060087,-1924.535449,1184.329507,-77988.521696
11246.062647,888.247130,-4145.153275,-76456.330700
11246.065206,5625.565159,-6513.812290,-77375.645298
11246.067766,6661.853478,-13915.871710,-76609.549800
11246.070326,4145.153275,-7846.182985,-75537.016103
11246.072885,444.123565,-9622.677246,-79061.055394
11246.075445,5773.606348,-1776.494261,-78754.617194
11246.078005,-1480.411884,-888.247130,-78141.740796
11246.080565,-296.082377,1480.411884,-77682.083497
11246.083124,12435.459826,444.123565,-78907.836294
11246.085684,3552.988522,-5033.400406,-76149.892501
11246.088244,-3108.864956,-740.205942,-78141.740796
11246.090803,5181.441594,-8734.430116,-80593.246390
11246.093363,1036.288319,-2220.617826,-76456.330700
11246.095923,-3849.070898,-3552.988522,-77069.207099
11246.098482,9030.512492,-6069.688724,-77222.426198
11246.101042,9474.636058,-6809.894666,-76149.892501
11246.103602,5329.482782,-4441.235652,-75996.673402
11246.106161,7105.977043,-6513.812290,-81052.903688
11246.108721,4589.276840,-9770.718434,-76456.330700
11246.111281,-3404.947333,-2664.741391,-75077.358804
11246.113840,4885.359217,-8290.306550,-77988.521696
11246.116400,-1776.494261,5033.400406,-77988.521696
11246.118960,-13915.871710,8734.430116,-78754.617194
11246.121519,-11843.295072,14508.036463,-78754.617194
11246.124079,3849.070898,5329.482782,-80593.246390
11246.126639,-5181.441594,6661.853478,-75383.797003
11246.129198,1184.329507,148.041188,-79214.274493
11246.131758,2960.823768,-3552.988522,-79214.274493
11246.134318,-6513.812290,-3997.112087,-76762.768900
11246.136847,-8882.471304,-3256.906145,-78754.617194
11246.139377,444.123565,1480.411884,-78448.178995
11246.141906,5773.606348,6513.812290,-75843.454302
11246.144436,-3997.112087,2072.576638,-75690.235202
11246.146966,-1480.411884,4293.194464,-77835.302597
11246.149495,-1628.453072,1036.288319,-77835.302597
11246.152025,-12583.501014,5477.523971,-78141.740796
11246.154555,-4737.318029,2812.782580,-79367.493593
11246.157084,-8290.306550,3108.864956,-75383.797003
11246.159614,-4737.318029,2516.700203,-76149.892501
11246.162143,-4145.153275,3701.029710,-79367.493593
11246.164673,-2516.700203,7994.224174,-78601.398095
11246.167203,0.000000,-2072.576638,-77682.083497
11246.169732,5921.647536,-7402.059420,-78141.740796
11246.172262,10510.924376,-10066.800811,-77375.645298
11246.174792,3256.906145,-11843.295072,-75843.454302
11246.177321,5773.606348,-11399.171507,-79520.712692
11246.179851,6365.771101,-9474.636058,-78294.959896
11246.182380,-4441.235652,-1924.535449,-76149.892501
11246.184910,-2072.576638,-1332.370696,-78448.178995
11246.187440,11991.336260,2664.741391,-77988.521696
11246.189969,296.082377,-1924.535449,-76303.111601
11246.192499,-296.082377,-3108.864956,-76456.330700
11246.195029,3256.906145,-5181.441594,-78294.959896
11246.197558,1924.535449,-9918.759623,-77682.083497
11246.200088,-2812.782580,-1480.411884,-77835.302597
11246.202617,8882.471304,-10955.047942,-79367.493593
11246.205147,6217.729913,-1924.535449,-74617.701505
11246.207677,5033.400406,-3701.029710,-77375.645298
11246.210206,8290.306550,-6957.935855,-79214.274493
11246.212736,9770.718434,-7105.977043,-78294.959896
11246.215266,-7402.059420,-8882.471304,-76762.768900
11246.217795,3256.906145,-1480.411884,-78601.398095
11246.220325,3404.947333,-3997.112087,-78141.740796
11246.222854,-15840.407159,5181.441594,-77222.426198
11246.225384,-6661.853478,13175.665768,-78448.178995
11246.227914,-4885.359217,10362.883188,-78141.740796
11246.230443,-888.247130,7698.141797,-75077.358804
11246.232973,-4737.318029,1776.494261,-77682.083497
11246.235503,5477.523971,-3256.906145,-79367.493593
11246.238043,-3701.029710,-2220.617826,-77682.083497
11246.240584,-13323.706956,-3997.112087,-78294.959896
11246.243125,444.123565,3997.112087,-77222.426198
11246.245665,3701.029710,3404.947333,-77682.083497
11246.248206,-3701.029710,6069.688724,-77988.521696
11246.250747,1480.411884,2516.700203,-77835.302597
11246.253287,-1480.411884,-1924.535449,-78141.740796
11246.255828,-11547.212695,5921.647536,-77682.083497
11246.258369,-7846.182985,1184.329507,-79520.712692
11246.260910,-5921.647536,7105.977043,-74311.263306
11246.263450,-5773.606348,1924.535449,-74617.701505
11246.265991,-592.164754,3256.906145,-78141.740796
11246.268532,-1628.453072,4293.194464,-78141.740796
11246.271072,-8882.471304,2812.782580,-77222.426198
11246.273613,11251.130318,-3849.070898,-77988.521696
11246.276154,11695.253884,-9474.636058,-79061.055394
11246.278694,3108.864956,-13619.789333,-76456.330700
11246.281235,2516.700203,-10658.965565,-78448.178995
11246.283776,6809.894666,-10066.800811,-79214.274493
11246.286317,-2664.741391,740.205942,-77988.521696
11246.288857,444.123565,-1036.288319,-81206.122788
11246.291398,12139.377449,888.247130,-78601.398095
11246.293939,2812.782580,-1628.453072,-76915.987999
11246.296479,-4737.318029,-4145.153275,-78601.398095
11246.299020,2812.782580,-5033.400406,-78907.836294
11246.301561,2516.700203,-5033.400406,-77375.645298
11246.304101,-6365.771101,-8142.265362,-76762.768900
11246.306642,10510.924376,-5921.647536,-77682.083497
11246.309183,6957.935855,-8142.265362,-74617.701505
11246.311723,3849.070898,-1924.535449,-75230.577904
11246.314264,10955.047942,-9030.512492,-80440.027290
11246.316805,6513.812290,-8290.306550,-77835.302597
11246.319346,-4737.318029,-5625.565159,-76609.549800
11246.321886,1184.329507,-1036.288319,-77222.426198
11246.324427,0.000000,-1776.494261,-78754.617194
11246.326968,-12879.583391,9622.677246,-75383.797003
11246.329508,-10362.883188,13767.830521,-79520.712692
11246.332049,1480.411884,8586.388927,-79061.055394
11246.334590,-2664.741391,7402.059420,-75843.454302
11246.337130,-1036.288319,296.082377,-78141.740796
11246.339676,4145.153275,-4441.235652,-77069.207099
11246.342226,-2516.700203,-4737.318029,-77222.426198
11246.344775,-11991.336260,-888.247130,-77069.207099
11246.347324,-444.123565,4441.235652,-78754.617194
11246.349873,6809.894666,2368.659014,-77528.864398
11246.352422,-5329.482782,6365.771101,-75996.673402
11246.354971,-3404.947333,3552.988522,-77069.207099
11246.357521,-2368.659014,2960.823768,-77682.083497
11246.360070,-11251.130318,3849.070898,-79061.055394
11246.362619,-10362.883188,5181.441594,-79980.369991
11246.365168,2220.617826,2664.741391,-77528.864398
11246.367717,0.000000,2664.741391,-75996.673402
11246.370266,-12435.459826,6513.812290,-77835.302597
11246.372816,-296.082377,3849.070898,-79214.274493
11246.375365,4885.359217,-4441.235652,-77988.521696
11246.377914,3997.112087,-6365.771101,-77835.302597
11246.380463,10066.800811,-11399.171507,-78907.836294
11246.383012,7846.182985,-13471.748144,-75690.235202
11246.385561,-3701.029710,-10807.006753,-77988.521696
11246.388111,2368.659014,-1332.370696,-78907.836294
11246.390660,3404.947333,-2072.576638,-78754.617194
11246.393209,1036.288319,2072.576638,-76149.892501
11246.395758,7402.059420,-2516.700203,-79673.931792
11246.398307,4145.153275,-1036.288319,-75537.016103
11246.400856,-4293.194464,-3997.112087,-75843.454302
11246.403405,148.041188,-8734.430116,-80593.246390
11246.405955,1628.453072,-5773.606348,-77222.426198
11246.408504,740.205942,-10955.047942,-77222.426198
11246.411053,1628.453072,-4737.318029,-75537.016103
11246.413602,16876.695478,-5625.565159,-77069.207099
11246.416151,6513.812290,-6809.894666,-77069.207099
11246.418700,4441.235652,-5033.400406,-79367.493593
11246.421250,6069.688724,-10066.800811,-79367.493593
11246.423799,592.164754,-1332.370696,-75230.577904
11246.426348,-3404.947333,-2516.700203,-77682.083497
11246.428897,-5921.647536,5921.647536,-78141.740796
11246.431446,-10955.047942,9770.718434,-77222.426198
11246.433995,-10807.006753,12879.583391,-76456.330700
11246.436545,3108.864956,8586.388927,-77682.083497
11246.439094,592.164754,-1184.329507,-75843.454302
11246.441650,-1628.453072,-1776.494261,-75230.577904
11246.444206,-3997.112087,-4737.318029,-79520.712692
11246.446763,-5625.565159,-2664.741391,-76456.330700
11246.449319,-8586.388927,1036.288319,-77222.426198
11246.451875,-740.205942,3849.070898,-77835.302597
11246.454431,6365.771101,3256.906145,-77222.426198
11246.456988,-2072.576638,3552.988522,-76762.768900
11246.459544,-10807.006753,4293.194464,-77682.083497
11246.462100,-4737.318029,3997.112087,-80593.246390
11246.464657,-11547.212695,7254.018232,-78754.617194
11246.467213,-9326.594869,2960.823768,-79827.150892
11246.469769,4737.318029,1776.494261,-77375.645298
11246.472325,-3701.029710,3256.906145,-76915.987999
11246.474882,-9326.594869,6217.729913,-79673.931792
11246.477438,7254.018232,-1628.453072,-79827.150892
11246.479994,8290.306550,-6809.894666,-77835.302597
11246.482551,2220.617826,-8142.265362,-76456.330700
11246.485107,9178.553681,-15396.283594,-78754.617194
11246.487663,5921.647536,-13175.665768,-77222.426198
11246.490219,-3849.070898,-9178.553681,-75996.673402
11246.492776,5329.482782,2664.741391,-78907.836294
11246.495332,4145.153275,-592.164754,-77682.083497
11246.497888,-3404.947333,296.082377,-76609.549800
11246.500445,4441.235652,-4145.153275,-77682.083497
11246.503001,2812.782580,-7550.100608,-78448.178995
11246.505557,-1036.288319,-2812.782580,-76915.987999
11246.508113,-444.123565,-5329.482782,-78907.836294
11246.510670,6957.935855,-6809.894666,-79061.055394
11246.513226,5033.400406,-7846.182985,-77222.426198
11246.515782,6661.853478,-5477.523971,-77835.302597
11246.518339,17024.736666,-8290.306550,-79367.493593
11246.520895,3256.906145,-7994.224174,-78141.740796
11246.523451,-3552.988522,-2960.823768,-76149.892501
11246.526007,4441.235652,-6513.812290,-79061.055394
11246.528564,-888.247130,-1184.329507,-75690.235202
11246.531120,-13471.748144,6957.935855,-77069.207099
11246.533676,-5477.523971,12435.459826,-77682.083497
11246.536233,-3256.906145,11399.171507,-77528.864398
11246.538789,-3552.988522,10214.842000,-77835.302597
11246.541345,2516.700203,2220.617826,-76915.987999
11246.543907,1184.329507,-3404.947333,-75537.016103
11246.546470,-9622.677246,-6661.853478,-78294.959896
11246.549032,-6217.729913,2368.659014,-79214.274493
11246.551594,296.082377,-1184.329507,-79980.369991
11246.554157,-1924.535449,4441.235652,-76456.330700
11246.556719,-148.041188,6809.894666,-77528.864398
11246.559281,6957.935855,-888.247130,-77682.083497
11246.561844,-10807.006753,7846.182985,-76303.111601
11246.564406,-5477.523971,2960.823768,-79673.931792
11246.566968,-7402.059420,3849.070898,-79214.274493
11246.569530,-4885.359217,1184.329507,-77988.521696
11246.572093,-4589.276840,3997.112087,-75383.797003
11246.574655,1036.288319,4293.194464,-78448.178995
11246.577217,-6365.771101,3552.988522,-77835.302597
11246.579780,2220.617826,-592.164754,-78294.959896
11246.582342,10658.965565,-9178.553681,-79520.712692
11246.584904,6513.812290,-6661.853478,-76456.330700
11246.587466,-888.247130,-13915.871710,-77835.302597
11246.590029,8438.347739,-14804.118840,-78754.617194
11246.592591,6661.853478,-2516.700203,-77069.207099
11246.595153,-4737.318029,-2960.823768,-78907.836294
11246.597716,6661.853478,1924.535449,-78294.959896
11246.600278,11103.089130,-3108.864956,-77835.302597
11246.602840,-5921.647536,-1776.494261,-74158.044206
11246.605403,5477.523971,-5033.400406,-78754.617194
11246.607965,2812.782580,-7550.100608,-79214.274493
11246.610527,-3997.112087,-6661.853478,-76762.768900
11246.613089,4293.194464,-4441.235652,-78294.959896
11246.615652,13471.748144,-7698.141797,-78141.740796
11246.618214,11103.089130,-5477.523971,-78141.740796
11246.620776,3404.947333,-6217.729913,-78754.617194
11246.623339,13027.624579,-7105.977043,-79061.055394
11246.625901,-3108.864956,-5921.647536,-78754.617194
11246.628463,-1776.494261,-3701.029710,-77835.302597
11246.631025,-1480.411884,296.082377,-77988.521696
11246.633588,-9030.512492,9326.594869,-76149.892501
11246.636150,-14211.954086,13767.830521,-77988.521696
11246.638712,2072.576638,9030.512492,-79673.931792
11246.641275,888.247130,5625.565159,-77222.426198
11246.643837,-5625.565159,-5477.523971,-75537.016103
11246.646403,740.205942,-888.247130,-76762.768900
11246.648970,-1480.411884,-5329.482782,-76915.987999
11246.651536,-13027.624579,-888.247130,-77835.302597
11246.654103,296.082377,740.205942,-80440.027290
11246.656669,2220.617826,4737.318029,-76303.111601
11246.659235,-6069.688724,6069.688724,-75383.797003
11246.661802,-6957.935855,5033.400406,-75996.673402
11246.664368,-1184.329507,3701.029710,-79214.274493
11246.666935,-11103.089130,3404.947333,-77988.521696
11246.669501,-12139.377449,6661.853478,-79980.369991
11246.672068,3256.906145,1036.288319,-79367.493593
11246.674634,-2812.782580,4885.359217,-75230.577904
11246.677200,-10807.006753,5773.606348,-78601.398095
11246.679767,4885.359217,3108.864956,-80899.684589
11246.682333,6661.853478,-7698.141797,-77988.521696
11246.684900,-148.041188,-6513.812290,-76456.330700
11246.687466,9918.759623,-13619.789333,-78601.398095
11246.690032,2960.823768,-15840.407159,-77222.426198
11246.692599,740.205942,-8586.388927,-74770.920605
11246.695165,296.082377,-592.164754,-78448.178995
11246.697732,7550.100608,888.247130,-77682.083497
11246.700298,-3552.988522,-1184.329507,-77528.864398
11246.702864,5477.523971,-1628.453072,-76303.111601
11246.705431,1480.411884,-1480.411884,-74924.139704
11246.707997,-148.041188,-5477.523971,-77835.302597
11246.710564,-3256.906145,-7105.977043,-80440.027290
11246.713130,11695.253884,-7105.977043,-79367.493593
11246.715697,1924.535449,-9770.718434,-76456.330700
11246.718263,6217.729913,-3256.906145,-77835.302597
11246.720829,17468.860231,-8586.388927,-78907.836294
11246.723396,444.123565,-7846.182985,-77528.864398
11246.725962,4589.276840,-4885.359217,-78754.617194
11246.728529,3108.864956,-2516.700203,-79520.712692
11246.731095,-3108.864956,-2516.700203,-76303.111601
11246.733661,-15248.242405,10955.047942,-76456.330700
11246.736228,-6217.729913,10214.842000,-78907.836294
11246.738794,-2812.782580,13619.789333,-76609.549800
11246.741361,-3701.029710,6513.812290,-77528.864398
11246.743927,2516.700203,2072.576638,-78294.959896
11246.746493,-1036.288319,-7846.182985,-77528.864398
11246.749063,-6957.935855,-296.082377,-75996.673402
11246.751633,-5181.441594,2812.782580,-80133.589091
11246.754203,2516.700203,740.205942,-78907.836294
11246.756773,1332.370696,3552.988522,-77069.207099
11246.759342,148.041188,7698.141797,-77528.864398
11246.761912,-592.164754,2664.741391,-76609.549800
11246.764482,-9178.553681,5921.647536,-76456.330700
11246.767052,-16728.654289,4293.194464,-79367.493593
11246.769621,-4737.318029,3849.070898,-79827.150892
11246.772191,-2516.700203,1924.535449,-75996.673402
11246.774761,-9770.718434,3552.988522,-75843.454302
11246.777331,-3552.988522,8290.306550,-77988.521696
11246.779900,7698.141797,-4885.359217,-78448.178995
11246.782470,3849.070898,-4145.153275,-75843.454302
11246.785040,7698.141797,-7846.182985,-79827.150892
11246.787610,7994.224174,-16284.530724,-78141.740796
11246.790179,0.000000,-11695.253884,-77069.207099
11246.792749,1480.411884,-7105.977043,-78448.178995
11246.795319,5181.441594,-2368.659014,-78294.959896
11246.797889,2516.700203,-592.164754,-77835.302597
11246.800458,4145.153275,1924.535449,-77069.207099
11246.803028,1776.494261,-3256.906145,-78754.617194
11246.805598,1036.288319,-3404.947333,-75996.673402
11246.808168,-5477.523971,-3552.988522,-78907.836294
11246.810738,6661.853478,-8290.306550,-79827.150892
11246.813307,3701.029710,-7254.018232,-77069.207099
11246.815877,2664.741391,-6513.812290,-75690.235202
11246.818447,18061.024985,-4885.359217,-78907.836294
11246.821017,8438.347739,-10658.965565,-79061.055394
11246.823586,-1924.535449,-6661.853478,-76762.768900
11246.826156,296.082377,-4293.194464,-80133.589091
11246.828726,2812.782580,-6809.894666,-77069.207099
11246.831296,-9622.677246,3997.112087,-76456.330700
11246.833865,-12139.377449,7994.224174,-77682.083497
11246.836435,-3256.906145,12879.583391,-77222.426198
11246.839005,-6957.935855,9030.512492,-76303.111601
11246.841575,-296.082377,8290.306550,-78754.617194
11246.844144,6217.729913,-5625.565159,-79673.931792
11246.846714,-3997.112087,-3108.864956,-77069.207099
11246.849284,-9918.759623,-3108.864956,-77375.645298
11246.851857,-592.164754,148.041188,-79061.055394
11246.854429,296.082377,4885.359217,-77069.207099
11246.857002,-2072.576638,4441.235652,-78754.617194
11246.859575,-296.082377,6513.812290,-77835.302597
11246.862147,-1036.288319,4145.153275,-75690.235202
11246.864720,-14359.995275,4441.235652,-77528.864398
11246.867293,-8734.430116,5033.400406,-79520.712692
11246.869865,-4737.318029,592.164754,-77069.207099
11246.872438,-3701.029710,4293.194464,-73391.948708
11246.875011,296.082377,7402.059420,-77988.521696
11246.877583,-3849.070898,444.123565,-77069.207099
11246.880156,3701.029710,-3404.947333,-76915.987999
11246.882729,6365.771101,-7254.018232,-77682.083497
11246.885301,10066.800811,-8438.347739,-75996.673402
11246.887874,1036.288319,-15840.407159,-78907.836294
11246.890447,888.247130,-10214.842000,-78754.617194
11246.893019,7105.977043,-4589.276840,-78907.836294
11246.895592,-148.041188,2072.576638,-77222.426198
11246.898165,2516.700203,1628.453072,-79214.274493
11246.900738,8882.471304,-1776.494261,-78294.959896
11246.903310,2368.659014,-296.082377,-75077.358804
11246.905883,-3108.864956,-5773.606348,-79520.712692
11246.908456,3108.864956,-7402.059420,-79673.931792
11246.911028,148.041188,-5625.565159,-78294.959896
11246.913601,-296.082377,-8438.347739,-76149.892501
11246.916174,14211.954086,-3552.988522,-76149.892501
11246.918746,11991.336260,-9030.512492,-77528.864398
11246.921319,2220.617826,-5181.441594,-76456.330700
11246.923892,2368.659014,-9030.512492,-80286.808190
11246.926464,1036.288319,-1480.411884,-75230.577904
11246.929037,-7254.018232,-4885.359217,-77375.645298
11246.931610,-8142.265362,9622.677246,-79214.274493
11246.934182,-3552.988522,11399.171507,-78907.836294
11246.936755,-4589.276840,12583.501014,-76762.768900
11246.939328,-1776.494261,9326.594869,-79061.055394
11246.941900,2072.576638,-4737.318029,-79827.150892
11246.944473,-3404.947333,-1628.453072,-75537.016103
11246.947046,-9326.594869,-4885.359217,-79520.712692
11246.949618,-296.082377,-1184.329507,-78294.959896
11246.952191,-4885.359217,2664.741391,-77682.083497
11246.954765,-1628.453072,2072.576638,-78601.398095
11246.957340,2220.617826,8142.265362,-78294.959896
11246.959914,-3701.029710,1184.329507,-76456.330700
11246.962488,-10658.965565,7550.100608,-75843.454302
11246.965062,-6661.853478,1776.494261,-80440.027290
11246.967637,-10214.842000,2664.741391,-75996.673402
11246.970211,-3997.112087,2072.576638,-76915.987999
11246.972785,-1776.494261,2960.823768,-76915.987999
11246.975360,740.205942,4885.359217,-75996.673402
11246.977934,-2368.659014,-2516.700203,-78448.178995
11246.980508,6957.935855,-6069.688724,-77988.521696
11246.983082,12435.459826,-12435.459826,-79827.150892
11246.985657,2220.617826,-13619.789333,-75537.016103
11246.988231,2516.700203,-11695.253884,-79367.493593
11246.990805,5329.482782,-7698.141797,-78294.959896
11246.993379,-1332.370696,296.082377,-76609.549800
11246.995954,592.164754,4885.359217,-79673.931792
11246.998528,10807.006753,-4737.318029,-78754.617194
11247.001102,-2072.576638,444.123565,-75843.454302
11247.003676,-5625.565159,-2812.782580,-75077.358804
11247.006251,7105.977043,-6069.688724,-79827.150892
11247.008825,-740.205942,-7550.100608,-78448.178995
11247.011399,2516.700203,-6513.812290,-76149.892501
11247.013974,17616.901420,-4885.359217,-77069.207099
11247.016548,10807.006753,-8882.471304,-75383.797003
11247.019122,2960.823768,-5329.482782,-78907.836294
11247.021696,4145.153275,-8734.430116,-79367.493593
11247.024271,-444.123565,-148.041188,-76303.111601
11247.026845,-7550.100608,2960.823768,-76303.111601
11247.029419,-12731.542202,7698.141797,-80286.808190
11247.031993,-4293.194464,9622.677246,-78141.740796
11247.034568,-8290.306550,12879.583391,-76915.987999
11247.037142,2516.700203,12435.459826,-78294.959896
11247.039716,2812.782580,-2368.659014,-78601.398095
11247.042290,-6069.688724,-6069.688724,-75996.673402
11247.044865,-4293.194464,148.041188,-77835.302597
11247.047439,-5921.647536,-4145.153275,-77682.083497
11247.050013,-592.164754,0.000000,-77222.426198
11247.052588,-1776.494261,5181.441594,-79980.369991
11247.055162,2072.576638,5773.606348,-77222.426198
11247.057737,592.164754,4885.359217,-77528.864398
11247.060313,-17764.942608,4293.194464,-79061.055394
11247.062888,-4441.235652,5181.441594,-79827.150892
11247.065464,-10658.965565,1480.411884,-77835.302597
11247.068040,-3849.070898,6217.729913,-76915.987999
11247.070615,1924.535449,3849.070898,-79673.931792
11247.073191,-1924.535449,-296.082377,-76915.987999
11247.075766,4441.235652,-3997.112087,-76456.330700
11247.078342,6513.812290,-8438.347739,-78907.836294
11247.080918,11399.171507,-9030.512492,-76456.330700
11247.083493,-1332.370696,-15248.242405,-76762.768900
11247.086069,5329.482782,-13027.624579,-79673.931792
11247.088644,4589.276840,-7550.100608,-76762.768900
11247.091220,-3108.864956,-1480.411884,-76915.987999
11247.093795,7698.141797,4441.235652,-79673.931792
11247.096371,9030.512492,-4737.318029,-78907.836294
11247.098947,296.082377,0.000000,-75690.235202
11247.101522,-2072.576638,-5625.565159,-77682.083497
11247.104098,4589.276840,-6069.688724,-79061.055394
11247.106673,3108.864956,-6809.894666,-77682.083497
11247.109249,2516.700203,-8586.388927,-79214.274493
11247.111824,16580.613101,-7550.100608,-76609.549800
11247.114400,10214.842000,-6661.853478,-76303.111601
11247.116976,2812.782580,-6069.688724,-77375.645298
11247.119551,2220.617826,-7105.977043,-79673.931792
11247.122127,2516.700203,-1776.494261,-76609.549800
11247.124702,-10955.047942,740.205942,-76609.549800
11247.127278,-11251.130318,11251.130318,-78601.398095
11247.129853,-5477.523971,11251.130318,-77528.864398
11247.132429,-6661.853478,11251.130318,-75996.673402
11247.135005,1036.288319,9178.553681,-77375.645298
11247.137580,444.123565,-4145.153275,-77835.302597
11247.140156,-6217.729913,-1332.370696,-76149.892501
11247.142731,-8734.430116,-2220.617826,-79827.150892
11247.145307,-148.041188,-1628.453072,-78141.740796
11247.147882,2220.617826,2368.659014,-78448.178995
11247.150458,-6217.729913,5181.441594,-78907.836294
11247.153034,5921.647536,5181.441594,-77069.207099
11247.155609,-9770.718434,6217.729913,-76762.768900
11247.158185,-10658.965565,6365.771101,-79673.931792
11247.160761,-4885.359217,296.082377,-80746.465489
11247.163338,-1036.288319,1184.329507,-77222.426198
11247.165914,-6957.935855,3552.988522,-76149.892501
11247.168491,-2220.617826,5477.523971,-77682.083497
11247.171068,1184.329507,148.041188,-76609.549800
11247.173644,3701.029710,-4589.276840,-75230.577904
11247.176221,10658.965565,-7402.059420,-78448.178995
11247.178797,7402.059420,-12879.583391,-76609.549800
11247.181374,-444.123565,-13915.871710,-78448.178995
11247.183951,5625.565159,-15248.242405,-79214.274493
11247.186527,5773.606348,592.164754,-77682.083497
11247.189104,4885.359217,1480.411884,-77375.645298
11247.191680,444.123565,-3404.947333,-77375.645298
11247.194257,148.041188,-444.123565,-77222.426198
11247.196834,4589.276840,-5033.400406,-73698.386908
11247.199410,-5625.565159,-5033.400406,-77375.645298
11247.201987,6365.771101,-7254.018232,-79214.274493
11247.204563,5329.482782,-8142.265362,-78294.959896
11247.207140,2960.823768,-7105.977043,-75230.577904
11247.209716,16580.613101,-7105.977043,-76915.987999
11247.212293,8290.306550,-10955.047942,-78907.836294
11247.214870,-3552.988522,-3997.112087,-76149.892501
11247.217446,740.205942,-1628.453072,-79520.712692
11247.220023,-2072.576638,-1924.535449,-78601.398095
11247.222599,-15100.201217,9178.553681,-77682.083497
11247.225176,-10362.883188,10510.924376,-77988.521696
11247.227753,3849.070898,12435.459826,-77528.864398
11247.230329,-6957.935855,10214.842000,-76303.111601
11247.232906,1628.453072,592.164754,-78907.836294
11247.235482,1036.288319,-5773.606348,-79367.493593
11247.238059,-7846.182985,-2072.576638,-75996.673402
11247.240635,-9474.636058,2516.700203,-78448.178995
11247.243212,1924.535449,592.164754,-79214.274493
11247.245789,5921.647536,1332.370696,-77222.426198
11247.248365,-9474.636058,8438.347739,-76456.330700
11247.250942,2812.782580,6365.771101,-78141.740796
11247.253518,-11843.295072,5329.482782,-78601.398095
11247.256095,-13619.789333,5181.441594,-76149.892501
11247.258672,-4589.276840,1480.411884,-79673.931792
11247.261248,2812.782580,2960.823768,-77682.083497
11247.263825,-9326.594869,4737.318029,-77988.521696
11247.266401,1184.329507,2516.700203,-78141.740796
11247.268978,11843.295072,-8142.265362,-77375.645298
11247.271554,2960.823768,-8882.471304,-74924.139704
11247.274131,8290.306550,-10066.800811,-78448.178995
11247.276707,5033.400406,-18209.066173,-78448.178995
11247.279284,444.123565,-6217.729913,-76609.549800
11247.281860,-1628.453072,-1036.288319,-79520.712692
11247.284436,11103.089130,4441.235652,-78294.959896
11247.287013,1924.535449,-1184.329507,-77988.521696
11247.289589,-3997.112087,-1924.535449,-76915.987999
11247.292166,9030.512492,-4145.153275,-77835.302597
11247.294742,2220.617826,-7698.141797,-78294.959896
11247.297319,-2072.576638,-2072.576638,-78294.959896
11247.299895,11103.089130,-12879.583391,-80440.027290
11247.302472,10066.800811,-7402.059420,-75996.673402
11247.305048,9326.594869,-6217.729913,-74617.701505
11247.307625,6365.771101,-7846.182985,-78754.617194
11247.310201,4589.276840,-7698.141797,-77222.426198
11247.312778,-5625.565159,-3256.906145,-77835.302597
11247.315354,-1332.370696,0.000000,-78601.398095
11247.317931,-12139.377449,6513.812290,-79061.055394
11247.320507,-14359.995275,13471.748144,-75077.358804
11247.323084,148.041188,12731.542202,-79214.274493
11247.325660,4589.276840,9622.677246,-76762.768900
11247.328237,-3404.947333,-2960.823768,-77222.426198
11247.330813,-7994.224174,-3256.906145,-80133.589091
11247.333390,2960.823768,-3256.906145,-79520.712692
11247.335966,-9622.677246,-1332.370696,-78448.178995
11247.338543,-2072.576638,3849.070898,-77682.083497
11247.341119,5625.565159,1776.494261,-78448.178995
11247.343695,-2960.823768,4293.194464,-75843.454302
11247.346272,-9770.718434,8734.430116,-76456.330700
11247.348848,-4145.153275,7846.182985,-79214.274493
11247.351425,-10955.047942,-592.164754,-78294.959896
11247.354001,-7846.182985,3552.988522,-76303.111601
11247.356578,1184.329507,3256.906145,-76609.549800
11247.359154,-3997.112087,7105.977043,-75383.797003
11247.361731,-740.205942,-888.247130,-77375.645298
11247.364307,10955.047942,-7550.100608,-79520.712692
11247.366886,8290.306550,-7402.059420,-76149.892501
11247.369462,2516.700203,-11991.336260,-78294.959896
11247.372039,2516.700203,-12139.377449,-79520.712692
11247.374615,6809.894666,-10955.047942,-77835.302597
11247.377192,-444.123565,-2220.617826,-76303.111601
11247.379768,5181.441594,5625.565159,-79367.493593
11247.382345,5477.523971,-1628.453072,-78601.398095
11247.384921,740.205942,-3701.029710,-76762.768900
11247.387498,-1332.370696,-1184.329507,-76915.987999
11247.390074,6809.894666,-5921.647536,-78448.178995
11247.392650,-740.205942,-6513.812290,-77528.864398
11247.395227,-2516.700203,-9918.759623,-77528.864398
11247.397803,17764.942608,-7698.141797,-77375.645298
11247.400380,10658.965565,-7254.018232,-74924.139704
11247.402956,3997.112087,-4885.359217,-76303.111601
11247.405533,3108.864956,-7105.977043,-80286.808190
11247.408109,148.041188,-2072.576638,-77069.207099
11247.410686,-13027.624579,3108.864956,-77988.521696
11247.413262,-10214.842000,9326.594869,-78907.836294
11247.415839,-2368.659014,13323.706956,-77375.645298
11247.418415,-2220.617826,7994.224174,-76609.549800
11247.420991,-1924.535449,8586.388927,-78141.740796
11247.423568,3849.070898,-5033.400406,-78601.398095
11247.426144,-13175.665768,-4737.318029,-76456.330700
11247.428721,-6069.688724,296.082377,-79520.712692
11247.431297,296.082377,-1184.329507,-78754.617194
11247.433874,-4145.153275,2812.782580,-76456.330700
11247.436450,3404.947333,3997.112087,-78754.617194
11247.439027,740.205942,8882.471304,-77069.207099
11247.441603,-7105.977043,5625.565159,-78601.398095
11247.444180,-17616.901420,6809.894666,-79827.150892
11247.446756,-4589.276840,2516.700203,-79827.150892
11247.449332,-592.164754,888.247130,-77069.207099
11247.451909,-9474.636058,7698.141797,-75230.577904
11247.454485,2664.741391,5921.647536,-79520.712692
11247.457062,2220.617826,-4737.318029,-77988.521696
11247.459638,7402.059420,-7846.182985,-77988.521696
11247.462215,7550.100608,-10362.883188,-78448.178995
11247.464791,5477.523971,-16728.654289,-77835.302597
11247.467368,1332.370696,-11399.171507,-76303.111601
11247.469944,3997.112087,-6809.894666,-77835.302597
11247.472521,7254.018232,1776.494261,-76149.892501
11247.475097,148.041188,3108.864956,-77375.645298
11247.477674,2072.576638,-148.041188,-79367.493593
11247.480250,4589.276840,-4737.318029,-76609.549800
11247.482827,-4441.235652,-4737.318029,-76149.892501
11247.485403,-2516.700203,-2960.823768,-78754.617194
11247.487980,10362.883188,-9918.759623,-79673.931792
11247.490556,6513.812290,-7105.977043,-77988.521696
11247.493133,8586.388927,-6661.853478,-78601.398095
11247.495709,14656.077652,-5921.647536,-78754.617194
11247.498286,2812.782580,-7846.182985,-77375.645298
11247.500863,-3849.070898,-2516.700203,-79061.055394
11247.503439,1480.411884,-3552.988522,-79061.055394
11247.506016,-14508.036463,9770.718434,-77682.083497
11247.508592,-16136.489536,11991.336260,-77528.864398
11247.511169,2368.659014,12287.418637,-80440.027290
11247.513745,3849.070898,7254.018232,-76456.330700
11247.516322,-5625.565159,-592.164754,-75537.016103
11247.518898,-1480.411884,-3997.112087,-78141.740796
11247.521475,-3997.112087,-5033.400406,-76762.768900
11247.524051,-9918.759623,888.247130,-77682.083497
11247.526628,2072.576638,-1480.411884,-79520.712692
11247.529204,5773.606348,4589.276840,-75077.358804
11247.531781,-2812.782580,5921.647536,-76609.549800
11247.534358,-10066.800811,6069.688724,-77528.864398
11247.536934,-1332.370696,6513.812290,-79980.369991
11247.539511,-17172.777854,2664.741391,-78448.178995
11247.542087,-4145.153275,1332.370696,-79061.055394
