#time,accel_x,accel_y,accel_z
12030.705371,-4293.194464,1776.494261,-77682.083497
12030.707813,5033.400406,-2960.823768,-77835.302597
12030.710255,-3997.112087,-2960.823768,-76762.768900
12030.712751,-5625.565159,1924.535449,-77375.645298
12030.715246,4885.359217,-2368.659014,-79367.493593
12030.717742,3256.906145,-592.164754,-76456.330700
12030.720237,-3404.947333,-1332.370696,-77682.083497
12030.722733,2664.741391,-2220.617826,-78141.740796
12030.725228,2960.823768,-296.082377,-76149.892501
12030.727724,-5033.400406,-1628.453072,-77069.207099
12030.730219,1924.535449,0.000000,-77682.083497
12030.732715,3701.029710,-1480.411884,-77682.083497
12030.735210,-3404.947333,-2664.741391,-75537.016103
12030.737706,-6069.688724,1924.535449,-77528.864398
12030.740201,4441.235652,-6365.771101,-77222.426198
12030.742697,-2220.617826,-1628.453072,-75383.797003
12030.745192,1776.494261,-4441.235652,-78601.398095
12030.747688,6513.812290,-5181.441594,-77375.645298
12030.750184,888.247130,-5033.400406,-75383.797003
12030.752679,6809.894666,-4737.318029,-79980.369991
12030.755175,4589.276840,-1628.453072,-77375.645298
12030.757670,-3552.988522,-3849.070898,-77528.864398
12030.760166,-3256.906145,2220.617826,-77069.207099
12030.762661,8142.265362,-2812.782580,-80440.027290
12030.765157,5033.400406,-1776.494261,-76609.549800
12030.767652,740.205942,-740.205942,-79673.931792
12030.770148,1924.535449,-4885.359217,-79520.712692
12030.772643,-8142.265362,2368.659014,-76915.987999
12030.775139,-8882.471304,-296.082377,-78754.617194
12030.777634,2072.576638,2516.700203,-78448.178995
12030.780130,2220.617826,3256.906145,-77835.302597
12030.782625,-6957.935855,740.205942,-76609.549800
12030.785121,-1776.494261,4293.194464,-77988.521696
12030.787616,-4441.235652,-2664.741391,-77222.426198
12030.790112,-7994.224174,1924.535449,-76915.987999
12030.792607,4589.276840,-2368.659014,-79980.369991
12030.795103,-2664.741391,-2072.576638,-75230.577904
12030.797598,-1924.535449,1332.370696,-75537.016103
12030.800094,-6661.853478,148.041188,-78141.740796
12030.802589,1924.535449,2220.617826,-77375.645298
12030.805085,-3256.906145,-296.082377,-76915.987999
12030.807580,1036.288319,-148.041188,-79980.369991
12030.810076,2960.823768,2072.576638,-77375.645298
12030.812600,148.041188,-4145.153275,-76303.111601
12030.815123,-4441.235652,3256.906145,-77835.302597
12030.817647,6513.812290,-888.247130,-79367.493593
12030.820171,-9030.512492,4145.153275,-77222.426198
12030.822695,-6661.853478,7105.977043,-76456.330700
12030.825219,-3108.864956,-1480.411884,-79827.150892
12030.827742,-5625.565159,1332.370696,-76915.987999
12030.830266,-11695.253884,2516.700203,-77222.426198
12030.832790,5625.565159,1924.535449,-77988.521696
12030.835314,2664.741391,-888.247130,-77835.302597
12030.837838,-5477.523971,-888.247130,-78907.836294
12030.840362,-2368.659014,740.205942,-78141.740796
12030.842885,-8142.265362,1628.453072,-77375.645298
12030.845409,-4589.276840,3849.070898,-75383.797003
12030.847933,6365.771101,-1036.288319,-79061.055394
12030.850457,2220.617826,4441.235652,-77375.645298
12030.852981,2664.741391,-5181.441594,-76149.892501
12030.855504,6661.853478,-6809.894666,-78601.398095
12030.858028,-1776.494261,-4737.318029,-77682.083497
12030.860552,-11399.171507,444.123565,-77375.645298
12030.863076,5181.441594,-3256.906145,-79520.712692
12030.865600,8734.430116,-4589.276840,-75843.454302
12030.868124,4293.194464,444.123565,-75843.454302
12030.870647,-1628.453072,-3701.029710,-78448.178995
12030.873171,7402.059420,-5477.523971,-79214.274493
12030.875695,-2220.617826,-8142.265362,-77682.083497
12030.878219,-2960.823768,-2516.700203,-78294.959896
12030.880743,7698.141797,-4145.153275,-79061.055394
12030.883266,1776.494261,-148.041188,-77375.645298
12030.885790,296.082377,148.041188,-78907.836294
12030.888314,5181.441594,-148.041188,-78141.740796
12030.890838,3997.112087,-2664.741391,-77375.645298
12030.893362,-7994.224174,-5921.647536,-77375.645298
12030.895886,6661.853478,-5477.523971,-77682.083497
12030.898409,4885.359217,-4589.276840,-77222.426198
12030.900933,-2664.741391,-4589.276840,-77528.864398
12030.903457,3997.112087,-296.082377,-79214.274493
12030.905981,0.000000,444.123565,-76456.330700
12030.908505,-3552.988522,-1628.453072,-76149.892501
12030.911028,3256.906145,-888.247130,-78601.398095
12030.913570,5921.647536,-7698.141797,-78907.836294
12030.916112,-1184.329507,-5921.647536,-77528.864398
12030.918654,5477.523971,-6069.688724,-78294.959896
12030.921196,11547.212695,-7698.141797,-79061.055394
12030.923738,2368.659014,-1184.329507,-75230.577904
12030.926280,1480.411884,296.082377,-77375.645298
12030.928822,3849.070898,-1628.453072,-77375.645298
12030.931363,-1184.329507,-1184.329507,-76609.549800
12030.933905,-2220.617826,-2516.700203,-78754.617194
12030.936447,9326.594869,-7105.977043,-78294.959896
12030.938989,888.247130,-6513.812290,-76762.768900
12030.941531,-3404.947333,-5773.606348,-76609.549800
12030.944073,4293.194464,-7698.141797,-78448.178995
12030.946615,-4441.235652,-296.082377,-76609.549800
12030.949157,-6661.853478,10066.800811,-77835.302597
12030.951698,6513.812290,296.082377,-79827.150892
12030.954240,592.164754,5329.482782,-76609.549800
12030.956782,-8142.265362,1924.535449,-76915.987999
12030.959324,-444.123565,0.000000,-78141.740796
12030.961866,4885.359217,-6217.729913,-80440.027290
12030.964408,-7550.100608,-2368.659014,-76915.987999
12030.966950,592.164754,2812.782580,-79520.712692
12030.969492,-1184.329507,-2368.659014,-78294.959896
12030.972033,-5921.647536,2220.617826,-75843.454302
12030.974575,0.000000,1480.411884,-77375.645298
12030.977117,-1776.494261,2072.576638,-76149.892501
12030.979659,-1628.453072,2072.576638,-76915.987999
12030.982201,-8438.347739,1332.370696,-77682.083497
12030.984743,6513.812290,-148.041188,-77222.426198
12030.987285,-2368.659014,1924.535449,-76762.768900
12030.989827,-7550.100608,-2072.576638,-77682.083497
12030.992368,6809.894666,1480.411884,-78448.178995
12030.994910,-4737.318029,-2960.823768,-77988.521696
12030.997452,-5773.606348,5329.482782,-76609.549800
12030.999994,1480.411884,-740.205942,-78601.398095
12031.002536,2812.782580,-3404.947333,-77528.864398
12031.005078,-5477.523971,2812.782580,-76456.330700
12031.007620,-888.247130,-148.041188,-78601.398095
12031.010162,4737.318029,2664.741391,-78448.178995
12031.012703,-8734.430116,1628.453072,-76762.768900
12031.015256,-740.205942,5033.400406,-78448.178995
12031.017810,-3108.864956,1036.288319,-77835.302597
12031.020363,-11251.130318,1480.411884,-77375.645298
12031.022917,-3108.864956,4589.276840,-77222.426198
12031.025470,2664.741391,-740.205942,-78601.398095
12031.028024,-888.247130,296.082377,-77682.083497
12031.030577,-1776.494261,-1924.535449,-78448.178995
12031.033131,-740.205942,-2072.576638,-79061.055394
12031.035684,-7846.182985,4589.276840,-76456.330700
12031.038238,-7105.977043,1480.411884,-78448.178995
12031.040791,11991.336260,740.205942,-78448.178995
12031.043345,-4145.153275,4737.318029,-75843.454302
12031.045898,5921.647536,1184.329507,-76915.987999
12031.048452,7698.141797,-7698.141797,-77988.521696
12031.051005,-3552.988522,-5329.482782,-77222.426198
12031.053559,-11251.130318,-2516.700203,-77222.426198
12031.056112,2664.741391,-2664.741391,-78141.740796
12031.058666,7698.141797,-2960.823768,-77375.645298
12031.061219,-2960.823768,-2072.576638,-76456.330700
12031.063773,10066.800811,-296.082377,-78294.959896
12031.066326,1184.329507,-5921.647536,-77682.083497
12031.068880,-4737.318029,-5477.523971,-76149.892501
12031.071433,1924.535449,-1776.494261,-78601.398095
12031.073987,5181.441594,-8142.265362,-77835.302597
12031.076540,-148.041188,-1332.370696,-76609.549800
12031.079094,3108.864956,-444.123565,-77835.302597
12031.081647,6661.853478,-148.041188,-77988.521696
12031.084201,-5773.606348,-1480.411884,-77069.207099
12031.086754,296.082377,-2516.700203,-79061.055394
12031.089308,6365.771101,-6809.894666,-79061.055394
12031.091861,-4145.153275,-5921.647536,-76303.111601
12031.094415,-4293.194464,-740.205942,-76762.768900
12031.096968,4737.318029,-444.123565,-78907.836294
12031.099522,-148.041188,-3404.947333,-76915.987999
12031.102075,-3849.070898,888.247130,-76915.987999
12031.104629,7698.141797,-2812.782580,-77528.864398
12031.107182,3108.864956,-5625.565159,-78448.178995
12031.109736,740.205942,-6069.688724,-78294.959896
12031.112289,12435.459826,-6809.894666,-77222.426198
12031.114843,6365.771101,-4885.359217,-77528.864398
12031.117400,-1036.288319,1924.535449,-78294.959896
12031.119958,4737.318029,-148.041188,-78907.836294
12031.122516,5181.441594,-4145.153275,-77528.864398
12031.125074,1332.370696,-2072.576638,-75690.235202
12031.127632,2812.782580,-5181.441594,-79214.274493
12031.130190,1480.411884,-7550.100608,-77528.864398
12031.132747,-4441.235652,-7105.977043,-76609.549800
12031.135305,3997.112087,-5329.482782,-78448.178995
12031.137863,4145.153275,3701.029710,-79061.055394
12031.140421,-2516.700203,5033.400406,-77835.302597
12031.142979,-1036.288319,1184.329507,-79980.369991
12031.145537,-740.205942,1480.411884,-79520.712692
12031.148095,-6365.771101,4441.235652,-76149.892501
12031.150652,888.247130,1776.494261,-78448.178995
12031.153210,4589.276840,-5181.441594,-79673.931792
12031.155768,-5773.606348,-592.164754,-77682.083497
12031.158326,-8734.430116,-1332.370696,-77375.645298
12031.160884,2812.782580,-296.082377,-77682.083497
12031.163442,296.082377,592.164754,-75383.797003
12031.165999,-4589.276840,2516.700203,-77222.426198
12031.168557,0.000000,3404.947333,-78907.836294
12031.171115,-1036.288319,3108.864956,-76456.330700
12031.173673,-10066.800811,1924.535449,-77528.864398
12031.176231,1036.288319,-740.205942,-77222.426198
12031.178789,1924.535449,740.205942,-76609.549800
12031.181347,-5477.523971,1332.370696,-75690.235202
12031.183904,-4293.194464,1924.535449,-78141.740796
12031.186462,3849.070898,-2516.700203,-79214.274493
12031.189020,-3552.988522,-1184.329507,-76762.768900
12031.191578,-1184.329507,2960.823768,-77528.864398
12031.194136,5773.606348,-888.247130,-78141.740796
12031.196694,-5921.647536,296.082377,-77069.207099
12031.199251,-2368.659014,1332.370696,-79367.493593
12031.201809,1628.453072,888.247130,-76762.768900
12031.204367,-3849.070898,5181.441594,-75996.673402
12031.206925,-11843.295072,3108.864956,-77375.645298
12031.209483,-5033.400406,2220.617826,-79214.274493
12031.212041,-2812.782580,2368.659014,-76915.987999
12031.214599,-5181.441594,2960.823768,-77375.645298
12031.217156,6217.729913,-2664.741391,-78907.836294
12031.219717,-3552.988522,-444.123565,-77069.207099
12031.222278,-7550.100608,2812.782580,-77069.207099
12031.224839,444.123565,-1332.370696,-78754.617194
12031.227400,5181.441594,1036.288319,-77528.864398
12031.229962,-4589.276840,4145.153275,-76915.987999
12031.232523,5477.523971,3849.070898,-79214.274493
12031.235084,8734.430116,-5477.523971,-76149.892501
12031.237645,-5033.400406,-7254.018232,-75690.235202
12031.240206,1036.288319,-2220.617826,-78448.178995
12031.242767,-2072.576638,-7402.059420,-78448.178995
12031.245328,-592.164754,-1628.453072,-76456.330700
12031.247889,5329.482782,-3256.906145,-77222.426198
12031.250450,8438.347739,-3849.070898,-79673.931792
12031.253011,3701.029710,-1628.453072,-76609.549800
12031.255572,-2516.700203,-4737.318029,-79061.055394
12031.258133,6661.853478,-4885.359217,-79214.274493
12031.260694,-296.082377,-5329.482782,-78754.617194
12031.263255,-1036.288319,-3108.864956,-77682.083497
12031.265816,9030.512492,-2516.700203,-78294.959896
12031.268377,-888.247130,-1332.370696,-77528.864398
12031.270938,-3256.906145,-296.082377,-78448.178995
12031.273499,3256.906145,-4293.194464,-79827.150892
12031.276060,592.164754,-1332.370696,-76915.987999
12031.278621,-740.205942,-3997.112087,-77682.083497
12031.281182,-444.123565,-2516.700203,-78294.959896
12031.283743,2664.741391,-1184.329507,-76456.330700
12031.286304,-3552.988522,-1480.411884,-76303.111601
12031.288865,3849.070898,-1776.494261,-78754.617194
12031.291426,2368.659014,-3997.112087,-76762.768900
12031.293987,-4145.153275,-5773.606348,-77835.302597
12031.296548,4293.194464,-2368.659014,-78294.959896
12031.299109,10658.965565,-6365.771101,-78907.836294
12031.301670,-1036.288319,-148.041188,-76609.549800
12031.304231,6365.771101,-1184.329507,-79827.150892
12031.306792,6661.853478,-5329.482782,-77835.302597
12031.309353,1628.453072,-296.082377,-76609.549800
12031.311914,2220.617826,-5477.523971,-79367.493593
12031.314475,2368.659014,-7254.018232,-78754.617194
12031.317037,-3108.864956,-5773.606348,-77528.864398
12031.319598,-4885.359217,-4885.359217,-76762.768900
12031.322161,3108.864956,2960.823768,-77988.521696
12031.324724,-1628.453072,592.164754,-76915.987999
12031.327287,-4293.194464,3108.864956,-78448.178995
12031.329851,-148.041188,740.205942,-80133.589091
12031.332414,-3108.864956,6661.853478,-76149.892501
12031.334977,-2072.576638,148.041188,-79367.493593
12031.337540,3404.947333,-1480.411884,-79214.274493
12031.340103,-1036.288319,148.041188,-78294.959896
12031.342667,-13175.665768,-148.041188,-76762.768900
12031.345230,-592.164754,296.082377,-77988.521696
12031.347793,444.123565,-1036.288319,-77069.207099
12031.350356,-6513.812290,1184.329507,-76609.549800
12031.352920,1036.288319,3701.029710,-79367.493593
12031.355483,-2072.576638,1480.411884,-77835.302597
12031.358046,-9326.594869,2072.576638,-75843.454302
12031.360609,-2664.741391,296.082377,-77682.083497
12031.363173,1924.535449,-296.082377,-78601.398095
12031.365736,-592.164754,-592.164754,-76915.987999
12031.368299,-5033.400406,444.123565,-77988.521696
12031.370862,4737.318029,-1332.370696,-78294.959896
12031.373426,444.123565,296.082377,-78294.959896
12031.375989,-6217.729913,-592.164754,-78601.398095
12031.378552,3701.029710,888.247130,-78601.398095
12031.381115,-4145.153275,2220.617826,-77069.207099
12031.383679,-5181.441594,2516.700203,-77988.521696
12031.386242,0.000000,4441.235652,-77682.083497
12031.388805,-2812.782580,3552.988522,-76303.111601
12031.391368,-12879.583391,2220.617826,-77222.426198
12031.393931,-1628.453072,2072.576638,-78141.740796
12031.396495,2812.782580,0.000000,-77528.864398
12031.399058,-7105.977043,-1332.370696,-75996.673402
12031.401621,2516.700203,-148.041188,-78754.617194
12031.404184,-6661.853478,-296.082377,-77528.864398
12031.406748,-7254.018232,2220.617826,-75690.235202
12031.409311,3997.112087,1184.329507,-79367.493593
12031.411874,4737.318029,3849.070898,-79367.493593
12031.414437,2072.576638,2960.823768,-76609.549800
12031.417001,4145.153275,-5625.565159,-78141.740796
12031.419564,5033.400406,-3256.906145,-78141.740796
12031.422127,-5033.400406,-4885.359217,-76609.549800
12031.424603,-5329.482782,-3256.906145,-78448.178995
12031.427079,9178.553681,-6661.853478,-79367.493593
12031.429555,5033.400406,-888.247130,-75077.358804
12031.432031,1036.288319,-1184.329507,-77375.645298
12031.434507,4293.194464,-4145.153275,-78601.398095
12031.436983,4145.153275,-3849.070898,-77375.645298
12031.439459,-4885.359217,-4441.235652,-76915.987999
12031.441935,2368.659014,0.000000,-78294.959896
12031.444411,5921.647536,-5033.400406,-78907.836294
12031.446887,-2072.576638,-1480.411884,-76149.892501
12031.449363,5921.647536,-1480.411884,-78754.617194
12031.451839,4441.235652,-4737.318029,-77988.521696
12031.454315,-3701.029710,-4441.235652,-75843.454302
12031.456791,2812.782580,-2072.576638,-77988.521696
12031.459267,3552.988522,-5921.647536,-76456.330700
12031.461743,-1924.535449,-1776.494261,-76609.549800
12031.464219,-8882.471304,-1480.411884,-78141.740796
12031.466695,11251.130318,-1628.453072,-77988.521696
12031.469171,-296.082377,-2516.700203,-76303.111601
12031.471647,-3701.029710,-4737.318029,-78601.398095
12031.474123,9474.636058,-4145.153275,-78601.398095
12031.476599,5477.523971,-5921.647536,-76609.549800
12031.479075,3701.029710,-1036.288319,-77528.864398
12031.481551,9030.512492,-2220.617826,-78294.959896
12031.484027,3849.070898,-2664.741391,-78141.740796
12031.486503,-3256.906145,-6217.729913,-77835.302597
12031.488979,3849.070898,-2368.659014,-77375.645298
12031.491455,0.000000,-5773.606348,-79367.493593
12031.493931,-2960.823768,-2664.741391,-75690.235202
12031.496407,4441.235652,-3404.947333,-79367.493593
12031.498883,-5625.565159,-1184.329507,-76456.330700
12031.501359,-740.205942,1332.370696,-75690.235202
12031.503835,-148.041188,-1184.329507,-79520.712692
12031.506311,-1628.453072,3849.070898,-78141.740796
12031.508787,-2516.700203,3552.988522,-77682.083497
12031.511263,1924.535449,592.164754,-77988.521696
12031.513739,3997.112087,-1332.370696,-79061.055394
12031.516215,-8586.388927,-296.082377,-76456.330700
12031.518691,-7402.059420,1332.370696,-77835.302597
12031.521167,1480.411884,-3552.988522,-79520.712692
12031.523668,-1776.494261,1036.288319,-77069.207099
12031.526170,-3404.947333,1036.288319,-78294.959896
12031.528671,3552.988522,3256.906145,-77682.083497
12031.531173,-3997.112087,2072.576638,-77835.302597
12031.533674,-11251.130318,3552.988522,-75690.235202
12031.536176,592.164754,888.247130,-77835.302597
12031.538677,740.205942,-444.123565,-78448.178995
12031.541179,-4293.194464,2516.700203,-76303.111601
12031.543680,1628.453072,-2220.617826,-79367.493593
12031.546181,-444.123565,3108.864956,-76149.892501
12031.548683,-6957.935855,-1036.288319,-77222.426198
12031.551184,-2960.823768,444.123565,-78294.959896
12031.553686,5477.523971,2960.823768,-77682.083497
12031.556187,-8882.471304,1036.288319,-77375.645298
12031.558689,-3552.988522,4885.359217,-79367.493593
12031.561190,-2516.700203,-1480.411884,-79827.150892
12031.563692,-12287.418637,4145.153275,-75996.673402
12031.566193,-444.123565,3256.906145,-78448.178995
12031.568695,740.205942,-2960.823768,-78294.959896
12031.571196,-3552.988522,-3108.864956,-76609.549800
12031.573698,-10510.924376,148.041188,-78141.740796
12031.576199,740.205942,3256.906145,-78754.617194
12031.578701,-1036.288319,1924.535449,-78448.178995
12031.581202,-2072.576638,1184.329507,-78754.617194
12031.583703,5477.523971,2960.823768,-78448.178995
12031.586205,5477.523971,-296.082377,-75690.235202
12031.588706,2960.823768,-5033.400406,-78141.740796
12031.591208,296.082377,-6809.894666,-80286.808190
12031.593709,-3849.070898,-1332.370696,-75996.673402
12031.596211,-3552.988522,-6365.771101,-77988.521696
12031.598712,5329.482782,-2960.823768,-77528.864398
12031.601214,8290.306550,-592.164754,-76915.987999
12031.603734,-888.247130,-4293.194464,-77222.426198
12031.606254,6217.729913,-1776.494261,-78294.959896
12031.608773,296.082377,-7994.224174,-77528.864398
12031.611293,-3701.029710,-2368.659014,-74924.139704
12031.613813,5329.482782,-3108.864956,-79520.712692
12031.616333,1628.453072,-4737.318029,-77222.426198
12031.618853,3552.988522,-1628.453072,-78141.740796
12031.621373,-148.041188,-1480.411884,-78601.398095
12031.623893,4885.359217,-3404.947333,-78907.836294
12031.626413,-444.123565,-2664.741391,-77528.864398
12031.628933,-296.082377,-2220.617826,-77682.083497
12031.631453,8586.388927,-2664.741391,-77682.083497
12031.633973,-2960.823768,-4441.235652,-77988.521696
12031.636492,-3849.070898,148.041188,-78141.740796
12031.639012,8438.347739,-7402.059420,-77835.302597
12031.641532,2072.576638,-3849.070898,-76915.987999
12031.644052,2664.741391,-1628.453072,-76762.768900
12031.646572,9178.553681,-7402.059420,-79827.150892
12031.649092,7698.141797,-2368.659014,-75996.673402
12031.651612,-592.164754,-4737.318029,-76609.549800
12031.654132,6513.812290,-4145.153275,-78141.740796
12031.656652,2812.782580,-5181.441594,-77835.302597
12031.659172,-3997.112087,-1036.288319,-76609.549800
12031.661691,9030.512492,-3701.029710,-78907.836294
12031.664211,4589.276840,-6217.729913,-79214.274493
12031.666731,-7254.018232,2220.617826,-75996.673402
12031.669251,-1184.329507,888.247130,-78754.617194
12031.671771,296.082377,-2664.741391,-78141.740796
12031.674291,-5773.606348,2368.659014,-78294.959896
12031.676811,-1924.535449,2812.782580,-79520.712692
12031.679331,7994.224174,740.205942,-78448.178995
12031.681851,-5329.482782,296.082377,-76303.111601
12031.684371,-7698.141797,3997.112087,-77835.302597
12031.686891,-3404.947333,888.247130,-79520.712692
12031.689410,-5625.565159,740.205942,-76609.549800
12031.691930,-4145.153275,592.164754,-77528.864398
12031.694450,5329.482782,-2516.700203,-78601.398095
12031.696970,1924.535449,1776.494261,-77528.864398
12031.699490,-9178.553681,3997.112087,-77682.083497
12031.702010,296.082377,1924.535449,-77988.521696
12031.704544,-5329.482782,740.205942,-77528.864398
12031.707077,-5033.400406,3997.112087,-75383.797003
12031.709611,5477.523971,-148.041188,-77988.521696
12031.712144,1628.453072,-444.123565,-76609.549800
12031.714678,-7105.977043,-1924.535449,-77835.302597
12031.717211,296.082377,2220.617826,-79061.055394
12031.719745,3404.947333,592.164754,-75690.235202
12031.722279,-2368.659014,2220.617826,-76762.768900
12031.724812,-296.082377,3552.988522,-78754.617194
12031.727346,1628.453072,2664.741391,-76915.987999
12031.729879,-13915.871710,4737.318029,-77682.083497
12031.732413,-6661.853478,1628.453072,-78754.617194
12031.734946,1924.535449,296.082377,-80593.246390
12031.737480,-4145.153275,592.164754,-76609.549800
12031.740014,-5033.400406,592.164754,-79827.150892
12031.742547,-1480.411884,-2072.576638,-78448.178995
12031.745081,-4737.318029,4441.235652,-77222.426198
12031.747614,-2960.823768,1628.453072,-77682.083497
12031.750148,5773.606348,1480.411884,-79214.274493
12031.752681,6957.935855,-592.164754,-77835.302597
12031.755215,296.082377,-4885.359217,-75843.454302
12031.757749,6217.729913,-6661.853478,-78141.740796
12031.760282,-6217.729913,-4589.276840,-75843.454302
12031.762816,-4145.153275,-3849.070898,-78294.959896
12031.765349,3997.112087,-6365.771101,-79061.055394
12031.767883,6809.894666,-1332.370696,-75537.016103
12031.770416,1332.370696,-296.082377,-76609.549800
12031.772950,5921.647536,-3997.112087,-79367.493593
12031.775484,7402.059420,-5921.647536,-78448.178995
12031.778017,-4145.153275,-7550.100608,-77375.645298
12031.780551,148.041188,-2516.700203,-77988.521696
12031.783084,8882.471304,-5625.565159,-78294.959896
12031.785618,-1776.494261,-2812.782580,-76303.111601
12031.788151,5033.400406,592.164754,-78907.836294
12031.790685,2664.741391,-4589.276840,-77988.521696
12031.793219,-2960.823768,-2220.617826,-76915.987999
12031.795752,-296.082377,-888.247130,-78294.959896
12031.798286,2516.700203,-3256.906145,-79061.055394
12031.800819,2220.617826,-4737.318029,-77682.083497
12031.803353,-5329.482782,1184.329507,-76303.111601
12031.805897,7698.141797,-6217.729913,-80286.808190
12031.808441,740.205942,-2072.576638,-77375.645298
12031.810986,444.123565,-4145.153275,-77835.302597
12031.813530,10066.800811,-5329.482782,-79061.055394
12031.816074,11251.130318,-6957.935855,-78141.740796
12031.818619,1776.494261,-5181.441594,-75996.673402
12031.821163,-1776.494261,-4885.359217,-77682.083497
12031.823707,5773.606348,-2664.741391,-78601.398095
12031.826251,-3108.864956,-2960.823768,-77528.864398
12031.828796,296.082377,-888.247130,-76915.987999
12031.831340,8290.306550,-3701.029710,-79367.493593
12031.833884,-3997.112087,592.164754,-77069.207099
12031.836429,-2072.576638,444.123565,-77835.302597
12031.838973,740.205942,-444.123565,-78601.398095
12031.841517,-5625.565159,3108.864956,-76609.549800
12031.844061,-3108.864956,6217.729913,-77069.207099
12031.846606,4441.235652,1480.411884,-79061.055394
12031.849150,1480.411884,1332.370696,-75690.235202
12031.851694,-11103.089130,1332.370696,-77222.426198
12031.854239,-6217.729913,888.247130,-80286.808190
12031.856783,-592.164754,-1036.288319,-77682.083497
12031.859327,-6957.935855,740.205942,-76456.330700
12031.861871,4589.276840,296.082377,-77988.521696
12031.864416,-888.247130,-148.041188,-78754.617194
12031.866960,-8438.347739,3552.988522,-75996.673402
12031.869504,-5921.647536,4885.359217,-78294.959896
12031.872049,3849.070898,-888.247130,-79367.493593
12031.874593,-1036.288319,-148.041188,-77222.426198
12031.877137,592.164754,-1184.329507,-77375.645298
12031.879681,3256.906145,-1628.453072,-77835.302597
12031.882226,-5625.565159,-888.247130,-76609.549800
12031.884770,-4145.153275,888.247130,-78754.617194
12031.887314,148.041188,5033.400406,-78141.740796
12031.889859,4145.153275,3108.864956,-77682.083497
12031.892403,-13175.665768,4589.276840,-76303.111601
12031.894947,-1628.453072,3404.947333,-78448.178995
12031.897491,-10066.800811,1776.494261,-75537.016103
12031.900036,-6513.812290,1776.494261,-77222.426198
12031.902580,1628.453072,-444.123565,-79673.931792
12031.905124,-3552.988522,740.205942,-76456.330700
12031.907677,-5181.441594,4589.276840,-77375.645298
12031.910229,-4589.276840,1628.453072,-78294.959896
12031.912782,4145.153275,740.205942,-78601.398095
12031.915335,-5181.441594,5329.482782,-77988.521696
12031.917887,6365.771101,1332.370696,-79061.055394
12031.920440,11399.171507,-8438.347739,-78601.398095
12031.922992,-6513.812290,-6809.894666,-76915.987999
12031.925545,-1036.288319,-888.247130,-78754.617194
12031.928098,740.205942,-9178.553681,-79520.712692
12031.930650,592.164754,-4293.194464,-76609.549800
12031.933203,2516.700203,-2664.741391,-78601.398095
12031.935755,11547.212695,-1628.453072,-78141.740796
12031.938308,3552.988522,-4145.153275,-76762.768900
12031.940860,-2812.782580,-3997.112087,-77528.864398
12031.943413,4589.276840,-6217.729913,-79367.493593
12031.945966,2516.700203,-6365.771101,-78448.178995
12031.948518,-888.247130,-2220.617826,-76915.987999
12031.951071,11251.130318,-4145.153275,-78754.617194
12031.953623,2812.782580,-1332.370696,-77835.302597
12031.956176,-1628.453072,592.164754,-76149.892501
12031.958728,1332.370696,-2072.576638,-77988.521696
12031.961281,4441.235652,-5625.565159,-79214.274493
12031.963834,-3849.070898,-4293.194464,-77222.426198
12031.966386,-2220.617826,-1480.411884,-77375.645298
12031.968939,5773.606348,-4589.276840,-77528.864398
12031.971491,-7698.141797,-4589.276840,-75383.797003
12031.974044,10362.883188,-3552.988522,-78754.617194
12031.976597,5181.441594,-6217.729913,-77682.083497
12031.979149,6957.935855,-5329.482782,-76609.549800
12031.981702,3404.947333,-3552.988522,-78294.959896
12031.984254,6217.729913,-9326.594869,-77835.302597
12031.986807,-1776.494261,-592.164754,-77528.864398
12031.989359,-5181.441594,-2960.823768,-79520.712692
12031.991912,9918.759623,-3256.906145,-79367.493593
12031.994465,-148.041188,-1036.288319,-76609.549800
12031.997017,-5477.523971,3108.864956,-76762.768900
12031.999570,5921.647536,-4737.318029,-78294.959896
12032.002122,-6365.771101,-1628.453072,-77835.302597
12032.004675,-8290.306550,4737.318029,-76149.892501
12032.007227,2664.741391,2368.659014,-79520.712692
12032.009784,7550.100608,1776.494261,-75996.673402
12032.012341,-6365.771101,4589.276840,-75996.673402
12032.014898,-3552.988522,1036.288319,-79520.712692
12032.017455,-6365.771101,3108.864956,-77682.083497
12032.020012,-8734.430116,-1776.494261,-75996.673402
12032.022569,4441.235652,2516.700203,-77988.521696
12032.025126,6217.729913,-1184.329507,-78754.617194
12032.027683,-3997.112087,148.041188,-76149.892501
12032.030240,-2368.659014,5625.565159,-77988.521696
12032.032796,-6513.812290,-1480.411884,-78294.959896
12032.035353,-3701.029710,4441.235652,-75230.577904
12032.037910,0.000000,1184.329507,-78907.836294
12032.040467,4737.318029,-1332.370696,-79367.493593
12032.043024,-2072.576638,-1036.288319,-77682.083497
12032.045581,-8882.471304,-1036.288319,-78294.959896
12032.048138,2072.576638,5329.482782,-78294.959896
12032.050695,0.000000,0.000000,-77375.645298
12032.053252,-6365.771101,9030.512492,-76149.892501
12032.055809,148.041188,148.041188,-79520.712692
12032.058366,-10066.800811,2516.700203,-76609.549800
12032.060923,-8882.471304,1776.494261,-77835.302597
12032.063480,0.000000,-1776.494261,-79673.931792
12032.066037,888.247130,1332.370696,-77069.207099
12032.068594,-6809.894666,148.041188,-77835.302597
12032.071151,-888.247130,0.000000,-77528.864398
12032.073708,6217.729913,740.205942,-77222.426198
12032.076265,-9030.512492,3404.947333,-75843.454302
12032.078822,7402.059420,4293.194464,-78754.617194
12032.081379,10066.800811,-9178.553681,-77988.521696
12032.083936,-3108.864956,-4441.235652,-76149.892501
12032.086493,-296.082377,-4441.235652,-78294.959896
12032.089050,-1184.329507,-6513.812290,-76149.892501
12032.091607,5181.441594,-3108.864956,-76762.768900
12032.094164,-296.082377,-1184.329507,-78141.740796
12032.096721,13471.748144,-2220.617826,-78141.740796
12032.099278,1036.288319,-2960.823768,-76456.330700
12032.101835,-740.205942,-3701.029710,-78754.617194
12032.104392,4145.153275,-4885.359217,-78754.617194
12032.106949,-1628.453072,-4885.359217,-76915.987999
12032.109506,148.041188,-2220.617826,-79367.493593
12032.112066,4441.235652,-2812.782580,-78907.836294
12032.114626,2516.700203,-4441.235652,-75996.673402
12032.117187,-2220.617826,-296.082377,-75996.673402
12032.119747,-148.041188,-1628.453072,-78754.617194
12032.122307,3256.906145,-4145.153275,-78141.740796
12032.124868,-6513.812290,-296.082377,-76456.330700
12032.127428,7105.977043,-3849.070898,-78601.398095
12032.129988,592.164754,-6513.812290,-76915.987999
12032.132549,1036.288319,-5921.647536,-76456.330700
12032.135109,1628.453072,-3552.988522,-79214.274493
12032.137670,15544.324782,-7994.224174,-78601.398095
12032.140230,5033.400406,-5181.441594,-77835.302597
12032.142790,5033.400406,-6513.812290,-76456.330700
12032.145351,3701.029710,-6217.729913,-78601.398095
12032.147911,-5921.647536,-3552.988522,-76303.111601
12032.150471,3108.864956,-444.123565,-79061.055394
12032.153032,7402.059420,-6217.729913,-78907.836294
12032.155592,-4145.153275,5329.482782,-74617.701505
12032.158152,-888.247130,-2220.617826,-77835.302597
12032.160713,-3404.947333,-3552.988522,-79214.274493
12032.163273,-1924.535449,4589.276840,-76303.111601
12032.165834,-10066.800811,4293.194464,-76762.768900
12032.168394,8882.471304,2368.659014,-78601.398095
12032.170954,592.164754,3256.906145,-77222.426198
12032.173515,-10362.883188,1776.494261,-77069.207099
12032.176075,-6513.812290,5181.441594,-78448.178995
12032.178635,-5181.441594,-888.247130,-77835.302597
12032.181196,-4737.318029,2368.659014,-77375.645298
12032.183756,2220.617826,-148.041188,-80286.808190
12032.186316,3997.112087,-740.205942,-77375.645298
12032.188877,-5033.400406,1776.494261,-76303.111601
12032.191437,-9030.512492,1184.329507,-78141.740796
12032.193997,-1628.453072,0.000000,-77069.207099
12032.196558,-2516.700203,3108.864956,-75383.797003
12032.199118,2812.782580,-592.164754,-79367.493593
12032.201679,-592.164754,-2516.700203,-78601.398095
12032.204239,-2664.741391,-2664.741391,-76915.987999
12032.206799,-7254.018232,5921.647536,-77835.302597
12032.209360,2368.659014,592.164754,-79061.055394
12032.211920,-2072.576638,7402.059420,-77988.521696
12032.214483,-11399.171507,3256.906145,-77069.207099
12032.217046,-592.164754,592.164754,-79061.055394
12032.219610,-6365.771101,444.123565,-77069.207099
12032.222173,-8586.388927,888.247130,-78907.836294
12032.224736,2072.576638,1776.494261,-79061.055394
12032.227299,1332.370696,-2072.576638,-77528.864398
12032.229862,-592.164754,2220.617826,-76456.330700
12032.232426,-4589.276840,6365.771101,-77222.426198
12032.234989,4145.153275,2516.700203,-79367.493593
12032.237552,7846.182985,-5477.523971,-78448.178995
12032.240115,-4737.318029,-3404.947333,-78754.617194
12032.242678,3256.906145,-5625.565159,-77528.864398
12032.245242,-4589.276840,-4737.318029,-77222.426198
12032.247805,3701.029710,-5477.523971,-79520.712692
12032.250368,2812.782580,-2072.576638,-78754.617194
12032.252931,7105.977043,-1480.411884,-77835.302597
12032.255494,-1776.494261,-2812.782580,-77069.207099
12032.258058,7846.182985,-6957.935855,-77682.083497
12032.260621,2516.700203,-3552.988522,-75996.673402
12032.263184,-3108.864956,-6365.771101,-77835.302597
12032.265747,6661.853478,-888.247130,-78601.398095
12032.268310,2220.617826,-4589.276840,-76456.330700
12032.270874,-4589.276840,-592.164754,-75537.016103
12032.273437,1332.370696,-1036.288319,-77835.302597
12032.276000,1628.453072,-6365.771101,-78754.617194
12032.278563,3849.070898,-740.205942,-76149.892501
12032.281126,-3256.906145,-148.041188,-78601.398095
12032.283690,10362.883188,-5181.441594,-78448.178995
12032.286253,-4737.318029,-6661.853478,-77682.083497
12032.288816,2960.823768,-2960.823768,-75537.016103
12032.291379,10214.842000,-6069.688724,-78754.617194
12032.293942,2516.700203,-4885.359217,-77069.207099
12032.296506,4885.359217,-3552.988522,-78294.959896
12032.299069,3849.070898,-7846.182985,-79367.493593
12032.301632,-2072.576638,-1776.494261,-76149.892501
12032.304195,-4293.194464,-2812.782580,-77222.426198
12032.306758,8882.471304,-888.247130,-78754.617194
12032.309322,2812.782580,-1776.494261,-79367.493593
12032.311885,-7698.141797,2812.782580,-76609.549800
12032.314448,7698.141797,-3997.112087,-78754.617194
12032.317014,-3849.070898,-1036.288319,-78601.398095
12032.319579,-7994.224174,3256.906145,-76456.330700
12032.322145,4589.276840,2812.782580,-78754.617194
12032.324710,4293.194464,1480.411884,-77835.302597
12032.327276,-5477.523971,1036.288319,-74924.139704
12032.329841,-7550.100608,3701.029710,-77988.521696
12032.332407,-3997.112087,-1776.494261,-78141.740796
12032.334972,-9326.594869,0.000000,-75537.016103
12032.337538,5181.441594,1776.494261,-77988.521696
12032.340104,5033.400406,2072.576638,-76762.768900
12032.342669,-2072.576638,4441.235652,-76303.111601
12032.345235,-13915.871710,148.041188,-78448.178995
12032.347800,592.164754,3108.864956,-79214.274493
12032.350366,-2072.576638,1776.494261,-77528.864398
12032.352931,-1776.494261,1332.370696,-79061.055394
12032.355497,2664.741391,148.041188,-79214.274493
12032.358062,-888.247130,-2516.700203,-78141.740796
12032.360628,-8290.306550,5181.441594,-77375.645298
12032.363194,-740.205942,1480.411884,-79214.274493
12032.365759,-4145.153275,5773.606348,-76456.330700
12032.368325,-9178.553681,1628.453072,-76609.549800
12032.370890,-3997.112087,2072.576638,-79061.055394
12032.373456,-2664.741391,-1036.288319,-77988.521696
12032.376021,-11399.171507,3404.947333,-76915.987999
12032.378587,444.123565,1480.411884,-78141.740796
12032.381152,-1480.411884,1036.288319,-76915.987999
12032.383718,1036.288319,1036.288319,-76915.987999
12032.386284,-2812.782580,5181.441594,-77835.302597
12032.388849,5181.441594,-1332.370696,-79980.369991
12032.391415,2516.700203,-5329.482782,-77375.645298
12032.393980,1480.411884,-2072.576638,-77835.302597
12032.396546,2960.823768,-5477.523971,-77375.645298
12032.399111,-5181.441594,-6217.729913,-78141.740796
12032.401677,6217.729913,-4441.235652,-78907.836294
12032.404242,6661.853478,-6513.812290,-79367.493593
12032.406808,-148.041188,-148.041188,-75996.673402
12032.409374,-444.123565,-2368.659014,-77682.083497
12032.411939,7994.224174,-6069.688724,-78907.836294
12032.414505,-1184.329507,-3108.864956,-76609.549800
12032.417070,-2516.700203,-5625.565159,-77222.426198
12032.419636,7550.100608,-2516.700203,-79827.150892
12032.422202,2664.741391,-6069.688724,-77988.521696
12032.424768,-5033.400406,2072.576638,-76915.987999
12032.427334,4885.359217,-3108.864956,-77375.645298
12032.429900,444.123565,-1628.453072,-77222.426198
12032.432466,-5921.647536,-5033.400406,-77222.426198
12032.435032,1628.453072,-1036.288319,-78294.959896
12032.437598,5329.482782,-7846.182985,-77069.207099
12032.440164,-3404.947333,-1332.370696,-75843.454302
12032.442729,7254.018232,-8142.265362,-79061.055394
12032.445295,9178.553681,-5625.565159,-76149.892501
12032.447861,2960.823768,-6365.771101,-76609.549800
12032.450427,7846.182985,-1924.535449,-78448.178995
12032.452993,5181.441594,-5033.400406,-77375.645298
12032.455559,-4145.153275,-1924.535449,-76456.330700
12032.458125,-1184.329507,-2220.617826,-77682.083497
12032.460691,7698.141797,-1924.535449,-80440.027290
12032.463257,-4441.235652,2812.782580,-77222.426198
12032.465823,1628.453072,-2368.659014,-78601.398095
12032.468389,-1628.453072,-3404.947333,-80440.027290
12032.470955,-7550.100608,3701.029710,-77375.645298
12032.473521,-6809.894666,6217.729913,-79061.055394
12032.476086,9918.759623,592.164754,-78754.617194
12032.478652,1924.535449,1480.411884,-76915.987999
12032.481218,-11103.089130,1924.535449,-77528.864398
12032.483784,-6957.935855,2812.782580,-77835.302597
12032.486350,-3701.029710,-1184.329507,-76149.892501
12032.488916,-3108.864956,1332.370696,-76456.330700
12032.491482,2960.823768,-2960.823768,-79520.712692
12032.494048,592.164754,2220.617826,-76609.549800
12032.496614,-9474.636058,592.164754,-75843.454302
12032.499180,-2664.741391,2220.617826,-76762.768900
12032.501746,3108.864956,1776.494261,-78141.740796
12032.504312,-1332.370696,0.000000,-75843.454302
12032.506878,-740.205942,0.000000,-79214.274493
12032.509444,2960.823768,-2812.782580,-78907.836294
12032.512009,-5181.441594,1184.329507,-76456.330700
12032.514575,-5625.565159,4293.194464,-77375.645298
12032.517141,3849.070898,1776.494261,-78141.740796
12032.519707,-11103.089130,3404.947333,-76915.987999
12032.522274,-13471.748144,3997.112087,-77375.645298
12032.524840,-1332.370696,-148.041188,-79367.493593
12032.527407,-7846.182985,1480.411884,-77375.645298
12032.529973,-6513.812290,4589.276840,-76915.987999
12032.532540,6217.729913,-444.123565,-80593.246390
12032.535106,1480.411884,148.041188,-76149.892501
12032.537673,-4145.153275,3849.070898,-77682.083497
12032.540239,6217.729913,-1776.494261,-77988.521696
12032.542806,3552.988522,-4145.153275,-77988.521696
12032.545372,-7254.018232,-3108.864956,-76303.111601
12032.547939,2960.823768,-148.041188,-77835.302597
12032.550505,2812.782580,-9030.512492,-77682.083497
12032.553072,592.164754,-5625.565159,-75690.235202
12032.555638,4589.276840,-3256.906145,-79061.055394
12032.558205,6661.853478,-3997.112087,-76915.987999
12032.560771,740.205942,-1924.535449,-77222.426198
12032.563338,5625.565159,-6513.812290,-77375.645298
12032.565904,740.205942,-5773.606348,-77528.864398
12032.568471,1480.411884,-5329.482782,-76762.768900
12032.571037,-2812.782580,-740.205942,-79061.055394
12032.573604,7402.059420,-1628.453072,-79367.493593
12032.576170,-1480.411884,-4589.276840,-77222.426198
12032.578737,-1924.535449,592.164754,-78141.740796
12032.581303,2960.823768,-2664.741391,-78294.959896
12032.583870,-1184.329507,-3552.988522,-78448.178995
12032.586436,-1924.535449,-3849.070898,-79980.369991
12032.589003,9030.512492,-5477.523971,-77835.302597
12032.591569,8438.347739,-6365.771101,-76456.330700
12032.594136,1924.535449,-7550.100608,-76609.549800
12032.596702,13323.706956,-6365.771101,-78294.959896
12032.599269,4737.318029,-4293.194464,-77222.426198
12032.601835,-2072.576638,-1628.453072,-76456.330700
12032.604402,1332.370696,-2812.782580,-79061.055394
12032.606968,3108.864956,-4885.359217,-75690.235202
12032.609535,148.041188,1776.494261,-76762.768900
12032.612101,0.000000,-740.205942,-78907.836294
12032.614668,5625.565159,-5477.523971,-78448.178995
12032.617234,-6957.935855,888.247130,-77835.302597
12032.619801,-9770.718434,2072.576638,-78754.617194
12032.622367,3849.070898,4589.276840,-78141.740796
12032.624934,-1924.535449,1036.288319,-76762.768900
12032.627501,1924.535449,5773.606348,-78754.617194
12032.630068,-4145.153275,-444.123565,-79061.055394
12032.632635,-13619.789333,740.205942,-78141.740796
12032.635202,-1184.329507,3108.864956,-78141.740796
12032.637768,3404.947333,-1184.329507,-77682.083497
12032.640335,2220.617826,-296.082377,-77375.645298
12032.642902,-5921.647536,3701.029710,-78448.178995
12032.645469,1924.535449,592.164754,-78754.617194
12032.648036,-4737.318029,4145.153275,-76915.987999
12032.650603,-3404.947333,-2220.617826,-77528.864398
12032.653170,-444.123565,3108.864956,-77528.864398
12032.655737,6513.812290,-1332.370696,-77222.426198
12032.658303,-9326.594869,296.082377,-76609.549800
12032.660870,-5477.523971,2960.823768,-77528.864398
12032.663437,1184.329507,2368.659014,-78754.617194
12032.666004,-5625.565159,5625.565159,-76149.892501
12032.668571,-8882.471304,4145.153275,-78141.740796
12032.671138,-444.123565,-740.205942,-78448.178995
12032.673705,-7698.141797,5921.647536,-77835.302597
12032.676272,-8734.430116,1036.288319,-79520.712692
12032.678838,6217.729913,1332.370696,-78448.178995
12032.681405,3849.070898,-2664.741391,-78754.617194
12032.683972,-8882.471304,1776.494261,-78141.740796
12032.686539,8586.388927,0.000000,-77528.864398
12032.689106,5477.523971,-9622.677246,-77835.302597
12032.691673,-3849.070898,-1036.288319,-77528.864398
12032.694240,1924.535449,-3404.947333,-79214.274493
12032.696807,3552.988522,-5329.482782,-75690.235202
12032.699373,1480.411884,-5773.606348,-76303.111601
12032.701940,5773.606348,-4441.235652,-77375.645298
12032.704507,6217.729913,-3108.864956,-77988.521696
12032.707073,740.205942,-3701.029710,-77682.083497
12032.709639,2072.576638,-4293.194464,-78448.178995
12032.712205,6365.771101,-8586.388927,-78907.836294
12032.714771,-888.247130,-4589.276840,-76456.330700
12032.717337,4293.194464,-296.082377,-78294.959896
12032.719903,5625.565159,-8734.430116,-77988.521696
12032.722469,-2072.576638,1184.329507,-76456.330700
12032.725035,1332.370696,444.123565,-77988.521696
12032.727601,296.082377,-5477.523971,-79061.055394
12032.730167,2516.700203,-3849.070898,-78141.740796
12032.732733,-4441.235652,-4293.194464,-77222.426198
12032.735299,9030.512492,-4737.318029,-79061.055394
12032.737865,5033.400406,-6661.853478,-77375.645298
12032.740431,4293.194464,-5773.606348,-76915.987999
12032.742997,15840.407159,-5477.523971,-79367.493593
12032.745563,2516.700203,-5773.606348,-77988.521696
12032.748129,-2220.617826,1184.329507,-76609.549800
12032.750695,3849.070898,-1628.453072,-78601.398095
12032.753261,2664.741391,-5625.565159,-76762.768900
12032.755827,-4441.235652,1628.453072,-76303.111601
12032.758393,2220.617826,-2220.617826,-78754.617194
12032.760959,1480.411884,-592.164754,-76609.549800
12032.763525,-9474.636058,-444.123565,-76303.111601
12032.766091,-4737.318029,5033.400406,-77988.521696
12032.768657,2812.782580,888.247130,-79367.493593
12032.771223,-4441.235652,4441.235652,-76149.892501
12032.773789,-2960.823768,3552.988522,-78601.398095
12032.776355,-3849.070898,2368.659014,-79980.369991
12032.778921,-8142.265362,1924.535449,-78448.178995
12032.781487,-9030.512492,-148.041188,-78448.178995
12032.784053,4145.153275,-2072.576638,-79367.493593
12032.786619,-2664.741391,-148.041188,-78448.178995
12032.789185,-296.082377,3404.947333,-78448.178995
12032.791751,2812.782580,296.082377,-79980.369991
12032.794317,-7846.182985,-740.205942,-76456.330700
12032.796883,-2960.823768,-4145.153275,-78141.740796
12032.799449,1924.535449,4737.318029,-78294.959896
12032.802015,4293.194464,-148.041188,-75843.454302
12032.804580,-10214.842000,2220.617826,-77222.426198
12032.807146,2664.741391,2516.700203,-77682.083497
12032.809712,-5329.482782,1184.329507,-77835.302597
12032.812278,-11695.253884,5625.565159,-74770.920605
12032.814844,-2220.617826,2516.700203,-78907.836294
12032.817409,-7994.224174,3108.864956,-77222.426198
12032.819975,-5181.441594,5329.482782,-76303.111601
12032.822541,444.123565,1776.494261,-79520.712692
12032.825106,6957.935855,-3552.988522,-77682.083497
12032.827672,-5181.441594,2072.576638,-77988.521696
12032.830238,-740.205942,0.000000,-77682.083497
12032.832803,14952.160028,-5033.400406,-79061.055394
12032.835369,-5773.606348,-6217.729913,-76915.987999
12032.837935,296.082377,-1184.329507,-79367.493593
12032.840500,4885.359217,-5033.400406,-77988.521696
12032.843066,2516.700203,-5921.647536,-76149.892501
12032.845632,-592.164754,-2664.741391,-76609.549800
12032.848197,7698.141797,-5773.606348,-78601.398095
12032.850763,3404.947333,-2220.617826,-77528.864398
12032.853329,148.041188,-4145.153275,-76762.768900
12032.855894,7402.059420,-7698.141797,-78141.740796
12032.858460,1036.288319,-3108.864956,-76609.549800
12032.861026,-1924.535449,-2220.617826,-77682.083497
12032.863591,7254.018232,-1036.288319,-78601.398095
12032.866157,4737.318029,-4885.359217,-78448.178995
12032.868723,-2960.823768,148.041188,-75383.797003
12032.871288,-888.247130,-3552.988522,-78907.836294
12032.873854,1924.535449,-4885.359217,-78141.740796
12032.876420,-4441.235652,-2960.823768,-76149.892501
12032.878985,5033.400406,-5181.441594,-79214.274493
12032.881551,7698.141797,-5921.647536,-76915.987999
12032.884117,4737.318029,-8882.471304,-77528.864398
12032.886683,9030.512492,-5329.482782,-79673.931792
12032.889248,6957.935855,-7402.059420,-79673.931792
12032.891814,-3849.070898,0.000000,-77222.426198
12032.894380,1036.288319,-1924.535449,-78448.178995
12032.896945,5773.606348,-3108.864956,-78448.178995
12032.899511,-2220.617826,740.205942,-77835.302597
12032.902077,148.041188,-3256.906145,-78907.836294
12032.904642,5181.441594,-2072.576638,-78448.178995
12032.907208,-10807.006753,1332.370696,-76303.111601
12032.909774,-5921.647536,6957.935855,-77835.302597
12032.912339,8734.430116,2368.659014,-79520.712692
12032.914905,1924.535449,3108.864956,-75537.016103
12032.917470,-5921.647536,6365.771101,-76456.330700
12032.920036,-7402.059420,148.041188,-78754.617194
12032.922601,-3997.112087,1332.370696,-76149.892501
12032.925167,-5773.606348,1184.329507,-76456.330700
12032.927732,3108.864956,2368.659014,-78294.959896
12032.930298,3256.906145,-296.082377,-77069.207099
12032.932863,-7994.224174,2812.782580,-77375.645298
12032.935429,-5329.482782,4145.153275,-79367.493593
12032.937994,-148.041188,-2368.659014,-76762.768900
12032.940560,-1184.329507,-444.123565,-77375.645298
12032.943125,2812.782580,4885.359217,-77682.083497
12032.945691,3552.988522,-3552.988522,-77988.521696
12032.948256,-9474.636058,2516.700203,-74924.139704
12032.950822,-3997.112087,2664.741391,-77835.302597
12032.953387,-6957.935855,3108.864956,-77222.426198
12032.955953,-5477.523971,5773.606348,-77528.864398
12032.958518,-10955.047942,3701.029710,-79061.055394
12032.961084,2960.823768,2664.741391,-78294.959896
12032.963649,-1924.535449,-1036.288319,-77375.645298
12032.966215,-148.041188,-296.082377,-75996.673402
12032.968780,3256.906145,1776.494261,-77222.426198
12032.971346,-1332.370696,-1036.288319,-78448.178995
12032.973911,148.041188,-5329.482782,-78907.836294
12032.976477,9030.512492,-8586.388927,-78907.836294
12032.979042,-148.041188,-2664.741391,-77682.083497
12032.981608,-2960.823768,-3552.988522,-75383.797003
12032.984173,6957.935855,-3108.864956,-79214.274493
12032.986738,3404.947333,-5921.647536,-77528.864398
12032.989304,0.000000,-1628.453072,-75843.454302
12032.991869,5773.606348,-6513.812290,-79061.055394
12032.994435,4885.359217,-5033.400406,-75843.454302
12032.997000,-1036.288319,-6809.894666,-76762.768900
12032.999566,1924.535449,-7994.224174,-78448.178995
12033.002131,6513.812290,-3256.906145,-79214.274493
12033.004697,-444.123565,-1924.535449,-76303.111601
12033.007262,-2220.617826,-1184.329507,-78141.740796
12033.009828,7846.182985,-2072.576638,-78294.959896
12033.012393,-3404.947333,-4145.153275,-77835.302597
12033.014957,-2812.782580,740.205942,-77835.302597
12033.017521,10214.842000,-7698.141797,-79367.493593
12033.020086,-3701.029710,-7550.100608,-75537.016103
12033.022650,10362.883188,-3404.947333,-79214.274493
12033.025214,11251.130318,-7105.977043,-78754.617194
12033.027778,6661.853478,-2072.576638,-76609.549800
12033.030342,-3404.947333,-148.041188,-78907.836294
12033.032906,3997.112087,-3997.112087,-79061.055394
12033.035470,2516.700203,-2072.576638,-77528.864398
12033.038034,-4885.359217,1036.288319,-75996.673402
12033.040598,5625.565159,1184.329507,-78907.836294
12033.043162,-592.164754,-3997.112087,-78294.959896
12033.045726,-10807.006753,1480.411884,-76149.892501
12033.048290,-3849.070898,4293.194464,-79061.055394
12033.050854,1332.370696,1036.288319,-77835.302597
12033.053418,-2368.659014,2516.700203,-77222.426198
12033.055982,-148.041188,5033.400406,-77988.521696
12033.058546,-1776.494261,1924.535449,-76609.549800
12033.061110,-12731.542202,592.164754,-76609.549800
12033.063675,-2516.700203,-444.123565,-78907.836294
12033.066239,-444.123565,-2220.617826,-76915.987999
12033.068803,-2072.576638,2516.700203,-77069.207099
12033.071367,-2072.576638,5329.482782,-76303.111601
12033.073931,-4441.235652,-2368.659014,-79214.274493
12033.076495,-592.164754,3256.906145,-77069.207099
12033.079059,-7994.224174,-296.082377,-76303.111601
12033.081623,2960.823768,2368.659014,-78754.617194
12033.084187,2516.700203,1628.453072,-77835.302597
12033.086751,-7846.182985,-592.164754,-77528.864398
12033.089315,-2220.617826,7846.182985,-77528.864398
12033.091879,-7994.224174,-296.082377,-76762.768900
12033.094443,-12583.501014,2368.659014,-77069.207099
12033.097007,-2812.782580,6513.812290,-77988.521696
12033.099571,-1480.411884,2516.700203,-79367.493593
12033.102135,1776.494261,444.123565,-77988.521696
12033.104699,-592.164754,-1332.370696,-78448.178995
12033.107264,0.000000,-1184.329507,-77528.864398
12033.109828,-444.123565,740.205942,-76303.111601
12033.112392,2960.823768,-9622.677246,-79980.369991
12033.114956,9030.512492,-2960.823768,-78907.836294
12033.117519,3849.070898,-2368.659014,-76915.987999
12033.120082,-1924.535449,-5773.606348,-77069.207099
12033.122646,7698.141797,-888.247130,-77375.645298
12033.125209,-1036.288319,-3552.988522,-77682.083497
12033.127772,-1332.370696,-1628.453072,-76456.330700
12033.130336,8734.430116,-6513.812290,-78907.836294
12033.132899,4737.318029,-4293.194464,-75690.235202
12033.135462,-1184.329507,-5921.647536,-77528.864398
12033.138026,2516.700203,-4885.359217,-78294.959896
12033.140589,5773.606348,-592.164754,-78601.398095
12033.143152,-3701.029710,-3256.906145,-77375.645298
12033.145716,-1628.453072,-1776.494261,-78141.740796
12033.148279,8142.265362,-148.041188,-76762.768900
12033.150843,-3552.988522,-6513.812290,-77375.645298
12033.153406,5921.647536,-1924.535449,-78294.959896
12033.155969,4441.235652,-11399.171507,-78448.178995
12033.158533,1628.453072,-4885.359217,-75537.016103
12033.161096,6661.853478,-5625.565159,-78448.178995
12033.163659,12139.377449,-7105.977043,-78601.398095
12033.166223,888.247130,-444.123565,-76915.987999
12033.168786,-3108.864956,-4589.276840,-78141.740796
12033.171349,8142.265362,-740.205942,-77835.302597
12033.173913,-592.164754,-1036.288319,-77682.083497
12033.176476,-5329.482782,1776.494261,-77835.302597
12033.179039,8438.347739,-3404.947333,-78601.398095
12033.181603,-7550.100608,0.000000,-77682.083497
12033.184166,-7994.224174,3997.112087,-74924.139704
12033.186729,-3404.947333,1776.494261,-78907.836294
12033.189293,5921.647536,2960.823768,-77835.302597
12033.191856,-6809.894666,3701.029710,-78448.178995
12033.194419,-1184.329507,5773.606348,-77835.302597
12033.196983,-4885.359217,888.247130,-76149.892501
12033.199546,-11399.171507,-740.205942,-76456.330700
12033.202109,740.205942,1924.535449,-78754.617194
12033.204673,2072.576638,-1332.370696,-76915.987999
12033.207236,-3256.906145,3552.988522,-77222.426198
12033.209799,-3404.947333,3404.947333,-79367.493593
12033.212363,1776.494261,-2812.782580,-77835.302597
12033.214926,-1480.411884,3701.029710,-76456.330700
12033.217489,-4737.318029,888.247130,-77375.645298
12033.220052,6661.853478,1184.329507,-79827.150892
12033.222615,-7254.018232,0.000000,-77222.426198
12033.225179,-3256.906145,4441.235652,-77069.207099
12033.227742,-3997.112087,2220.617826,-78141.740796
12033.230305,-11399.171507,3701.029710,-77222.426198
12033.232868,-9622.677246,6957.935855,-77835.302597
12033.235431,592.164754,1776.494261,-79673.931792
12033.237994,3552.988522,3108.864956,-77222.426198
12033.240557,-888.247130,-296.082377,-78601.398095
12033.243120,1036.288319,0.000000,-78907.836294
12033.245683,1628.453072,-1776.494261,-78141.740796
12033.248246,-1184.329507,-5033.400406,-77528.864398
12033.250809,7698.141797,-5477.523971,-79061.055394
12033.253372,6661.853478,-3256.906145,-77835.302597
12033.255935,-3108.864956,-3701.029710,-75843.454302
12033.258498,7550.100608,-2516.700203,-78907.836294
12033.261061,1628.453072,-5773.606348,-77682.083497
12033.263624,-148.041188,-888.247130,-76149.892501
12033.266187,4589.276840,-5181.441594,-79061.055394
12033.268750,6365.771101,-5181.441594,-76609.549800
12033.271314,-2960.823768,-7994.224174,-76303.111601
12033.273877,5625.565159,-1628.453072,-77835.302597
12033.276440,5773.606348,296.082377,-78907.836294
12033.279003,888.247130,-5181.441594,-78141.740796
12033.281566,-3552.988522,3256.906145,-78448.178995
12033.284129,8438.347739,-6513.812290,-79061.055394
12033.286692,-1924.535449,-2812.782580,-78754.617194
12033.289255,1332.370696,-5181.441594,-78754.617194
12033.291818,7254.018232,-10510.924376,-79673.931792
12033.294381,7846.182985,-5329.482782,-76456.330700
12033.296944,5921.647536,-7550.100608,-76915.987999
12033.299507,6661.853478,-5181.441594,-77988.521696
12033.302070,5477.523971,-1332.370696,-76762.768900
12033.304633,-5921.647536,-3404.947333,-77222.426198
12033.307196,4589.276840,592.164754,-77375.645298
12033.309759,592.164754,-1628.453072,-77222.426198
12033.312322,-2368.659014,296.082377,-76456.330700
12033.314886,4145.153275,-2664.741391,-79980.369991
12033.317449,-7550.100608,4293.194464,-75996.673402
12033.320012,-11843.295072,6217.729913,-75996.673402
12033.322573,-296.082377,3552.988522,-78601.398095
12033.325135,5625.565159,444.123565,-79367.493593
12033.327697,-6661.853478,6365.771101,-75537.016103
12033.330259,-4589.276840,1924.535449,-78754.617194
12033.332821,-1924.535449,1480.411884,-77682.083497
12033.335382,-9770.718434,-1628.453072,-77528.864398
12033.337944,-296.082377,2072.576638,-78294.959896
12033.340506,5181.441594,-1628.453072,-78141.740796
12033.343068,-3701.029710,2664.741391,-76915.987999
12033.345629,-6957.935855,1036.288319,-77988.521696
12033.348191,1776.494261,-148.041188,-78907.836294
12033.350753,2516.700203,1628.453072,-75843.454302
12033.353315,-2220.617826,3701.029710,-79061.055394
12033.355877,1776.494261,1036.288319,-78448.178995
12033.358438,-2368.659014,3849.070898,-78141.740796
12033.361000,-13323.706956,2220.617826,-76149.892501
12033.363562,-1480.411884,6365.771101,-77988.521696
12033.366124,-4145.153275,2368.659014,-77835.302597
12033.368686,-10214.842000,5033.400406,-75843.454302
12033.371247,6957.935855,740.205942,-79214.274493
12033.373809,2516.700203,-1628.453072,-77528.864398
12033.376371,-5921.647536,1924.535449,-76915.987999
12033.378933,148.041188,-2368.659014,-78141.740796
12033.381494,6661.853478,-7105.977043,-77375.645298
12033.384056,-4293.194464,-4145.153275,-77835.302597
12033.386618,7550.100608,-2664.741391,-78448.178995
12033.389180,9326.594869,-5773.606348,-80133.589091
12033.391742,2220.617826,-5033.400406,-77069.207099
12033.394303,296.082377,-1036.288319,-78141.740796
12033.396865,5033.400406,-6217.729913,-78907.836294
12033.399427,1924.535449,-1924.535449,-76762.768900
12033.401989,2812.782580,-6217.729913,-78754.617194
12033.404550,7254.018232,-8290.306550,-79061.055394
12033.407112,444.123565,-5329.482782,-77069.207099
12033.409674,1332.370696,-1628.453072,-76609.549800
12033.412236,2368.659014,148.041188,-78754.617194
12033.414798,2664.741391,-3701.029710,-76609.549800
12033.417359,-6069.688724,2516.700203,-75843.454302
12033.419921,5329.482782,-5921.647536,-78907.836294
12033.422483,1480.411884,-3997.112087,-76762.768900
12033.425044,-148.041188,-7846.182985,-77069.207099
12033.427606,11251.130318,-6365.771101,-78294.959896
12033.430167,9770.718434,-7550.100608,-79367.493593
12033.432728,-444.123565,-4441.235652,-76609.549800
12033.435289,3849.070898,-2220.617826,-79673.931792
12033.437851,3849.070898,-3701.029710,-77682.083497
12033.440412,-3108.864956,1036.288319,-74924.139704
12033.442973,-296.082377,-592.164754,-79520.712692
12033.445535,5921.647536,-3108.864956,-78294.959896
12033.448096,-10807.006753,-2368.659014,-77528.864398
12033.450657,-6069.688724,3108.864956,-76762.768900
12033.453218,-3997.112087,1628.453072,-78141.740796
12033.455780,148.041188,2220.617826,-76915.987999
12033.458341,-1036.288319,8290.306550,-76915.987999
12033.460902,1776.494261,3256.906145,-79367.493593
12033.463464,-5773.606348,3552.988522,-76149.892501
12033.466025,-9770.718434,-1036.288319,-77835.302597
12033.468586,1184.329507,1480.411884,-77988.521696
12033.471147,592.164754,-1184.329507,-78754.617194
12033.473709,-2220.617826,2368.659014,-77988.521696
12033.476270,1036.288319,2960.823768,-78601.398095
12033.478831,-444.123565,-888.247130,-76609.549800
12033.481393,-6809.894666,2516.700203,-77528.864398
12033.483954,-740.205942,592.164754,-79520.712692
12033.486515,4145.153275,-148.041188,-79980.369991
12033.489076,-5773.606348,1924.535449,-77988.521696
12033.491638,-10066.800811,3108.864956,-77069.207099
12033.494199,-4441.235652,4145.153275,-77375.645298
12033.496760,-13471.748144,3552.988522,-77069.207099
12033.499322,-4441.235652,7254.018232,-79214.274493
12033.501883,7550.100608,-1184.329507,-78601.398095
12033.504444,3108.864956,-1628.453072,-76609.549800
12033.507006,-6809.894666,2960.823768,-76762.768900
12033.509567,2368.659014,-6809.894666,-78448.178995
12033.512128,4885.359217,-6365.771101,-76303.111601
12033.514689,-1776.494261,-4145.153275,-77528.864398
12033.517251,8438.347739,-2072.576638,-77835.302597
12033.519812,6957.935855,-5033.400406,-77988.521696
12033.522373,-1924.535449,-3701.029710,-76762.768900
12033.524935,3256.906145,-1184.329507,-78294.959896
12033.527494,5773.606348,-5181.441594,-79673.931792
12033.530054,1332.370696,-2516.700203,-77528.864398
12033.532614,6661.853478,-5477.523971,-77682.083497
12033.535174,7994.224174,-8142.265362,-77528.864398
12033.537734,-2368.659014,-3997.112087,-76915.987999
12033.540294,-1924.535449,-4737.318029,-77682.083497
12033.542854,3701.029710,-2220.617826,-79061.055394
12033.545414,-4441.235652,-3552.988522,-75996.673402
12033.547974,3552.988522,-3701.029710,-77222.426198
12033.550534,10510.924376,-2812.782580,-77375.645298
12033.553093,1628.453072,-9030.512492,-77222.426198
12033.555653,3997.112087,-5329.482782,-77835.302597
12033.558213,15692.365970,-10510.924376,-79061.055394
12033.560773,6513.812290,-2368.659014,-77375.645298
12033.563333,0.000000,-4441.235652,-77988.521696
12033.565893,5477.523971,-1628.453072,-78448.178995
12033.568453,-1480.411884,-1776.494261,-77222.426198
12033.571013,-6069.688724,740.205942,-77222.426198
12033.573573,5625.565159,1332.370696,-78141.740796
12033.576133,-148.041188,-2812.782580,-78448.178995
12033.578692,-11991.336260,2368.659014,-75537.016103
12033.581252,-4589.276840,5181.441594,-77528.864398
12033.583812,-2664.741391,1924.535449,-76915.987999
12033.586372,-4145.153275,1776.494261,-76609.549800
12033.588932,1184.329507,4589.276840,-79061.055394
12033.591492,-296.082377,3256.906145,-77682.083497
12033.594052,-10955.047942,148.041188,-77069.207099
12033.596612,-3108.864956,2960.823768,-77682.083497
12033.599172,1628.453072,-3256.906145,-79520.712692
12033.601732,-2072.576638,3256.906145,-77069.207099
12033.604291,-2664.741391,1332.370696,-78448.178995
12033.606851,1184.329507,-592.164754,-78294.959896
12033.609411,-1628.453072,592.164754,-76915.987999
12033.611971,-1480.411884,2516.700203,-78448.178995
12033.614531,4293.194464,296.082377,-78601.398095
12033.617091,148.041188,296.082377,-78754.617194
12033.619651,-12731.542202,6513.812290,-75230.577904
12033.622211,-5921.647536,5181.441594,-76915.987999
12033.624771,-11251.130318,4589.276840,-76456.330700
12033.627331,-9030.512492,5033.400406,-78141.740796
12033.629890,5329.482782,1036.288319,-80286.808190
12033.632449,6957.935855,592.164754,-76762.768900
12033.635008,-7254.018232,4441.235652,-76609.549800
12033.637567,2516.700203,-3108.864956,-79367.493593
12033.640127,6217.729913,-9770.718434,-78754.617194
12033.642686,-2664.741391,-6365.771101,-76456.330700
12033.645245,5477.523971,-1332.370696,-77682.083497
12033.647804,9326.594869,-7105.977043,-79827.150892
12033.650364,444.123565,-4145.153275,-75537.016103
12033.652923,2960.823768,-4737.318029,-77682.083497
12033.655482,-444.123565,-3701.029710,-77069.207099
12033.658041,1184.329507,-2960.823768,-77222.426198
12033.660600,6069.688724,-4293.194464,-78754.617194
12033.663160,12879.583391,-3108.864956,-77222.426198
12033.665719,-1036.288319,-6957.935855,-77835.302597
12033.668278,-3404.947333,-2960.823768,-77682.083497
12033.670837,6069.688724,0.000000,-78601.398095
12033.673397,-3701.029710,-4441.235652,-76456.330700
12033.675956,-1924.535449,-1480.411884,-78754.617194
12033.678515,6069.688724,-5921.647536,-78448.178995
12033.681074,3256.906145,-6513.812290,-77222.426198
12033.683633,0.000000,-7254.018232,-79061.055394
12033.686193,9918.759623,-9178.553681,-79061.055394
12033.688752,7846.182985,-4145.153275,-77528.864398
12033.691311,-1924.535449,-4145.153275,-76303.111601
12033.693870,6809.894666,-2072.576638,-78448.178995
12033.696430,1332.370696,-5033.400406,-78141.740796
12033.698989,-7402.059420,3404.947333,-76303.111601
12033.701548,6217.729913,-444.123565,-78448.178995
12033.704107,0.000000,-1480.411884,-76303.111601
12033.706667,-10066.800811,2516.700203,-76303.111601
12033.709226,-8290.306550,9178.553681,-76609.549800
12033.711785,4737.318029,-2960.823768,-79061.055394
12033.714344,-3404.947333,7105.977043,-75537.016103
12033.716903,-2812.782580,3701.029710,-79214.274493
12033.719463,740.205942,2812.782580,-78754.617194
12033.722022,-10214.842000,296.082377,-75843.454302
12033.724581,-4885.359217,5033.400406,-77375.645298
12033.727140,3849.070898,-2516.700203,-79673.931792
12033.729700,-2072.576638,2072.576638,-79061.055394
12033.732259,-9474.636058,5773.606348,-76609.549800
12033.734818,-444.123565,-3256.906145,-79980.369991
12033.737377,-148.041188,3849.070898,-77222.426198
12033.739936,-2220.617826,444.123565,-77528.864398
12033.742495,740.205942,4737.318029,-78448.178995
12033.745054,592.164754,1924.535449,-77375.645298
12033.747613,-15248.242405,3552.988522,-78448.178995
12033.750172,-5625.565159,5329.482782,-77835.302597
12033.752731,-5477.523971,1628.453072,-78141.740796
12033.755290,-5477.523971,4441.235652,-75383.797003
12033.757850,8438.347739,-592.164754,-79980.369991
12033.760409,2072.576638,-2072.576638,-77835.302597
12033.762968,-8586.388927,1628.453072,-74924.139704
12033.765527,2368.659014,-7550.100608,-78448.178995
12033.768086,5033.400406,-6217.729913,-76762.768900
12033.770645,-3256.906145,-5033.400406,-77835.302597
12033.773204,6069.688724,-1036.288319,-77528.864398
12033.775763,13471.748144,-6957.935855,-79673.931792
12033.778322,-2072.576638,-4737.318029,-76609.549800
12033.780881,-1332.370696,-1332.370696,-77375.645298
12033.783441,4885.359217,-4293.194464,-80133.589091
12033.786000,4441.235652,-3404.947333,-77528.864398
12033.788559,2368.659014,-3552.988522,-79673.931792
12033.791118,7254.018232,-4885.359217,-77835.302597
12033.793677,2368.659014,-6661.853478,-77988.521696
12033.796236,-4441.235652,740.205942,-77682.083497
12033.798795,296.082377,-2664.741391,-78294.959896
12033.801354,5773.606348,-3404.947333,-76456.330700
12033.803913,-4885.359217,-3404.947333,-76456.330700
12033.806472,9326.594869,-6513.812290,-78754.617194
12033.809031,6957.935855,-7550.100608,-76456.330700
12033.811591,4589.276840,-8438.347739,-76915.987999
12033.814150,9622.677246,-5477.523971,-77682.083497
12033.816709,4737.318029,-6365.771101,-77682.083497
12033.819268,-1628.453072,-1036.288319,-75843.454302
12033.821827,1332.370696,-1924.535449,-77682.083497
12033.824386,2664.741391,-1480.411884,-79520.712692
12033.826945,-1332.370696,148.041188,-76609.549800
12033.829504,-3256.906145,2812.782580,-77682.083497
12033.832063,-1480.411884,1036.288319,-77222.426198
12033.834621,-10807.006753,2812.782580,-77069.207099
12033.837179,-1184.329507,4737.318029,-78601.398095
12033.839738,3256.906145,444.123565,-77835.302597
12033.842296,-6957.935855,6513.812290,-75996.673402
12033.844854,-7105.977043,4145.153275,-77682.083497
12033.847412,-4293.194464,-1332.370696,-78907.836294
12033.849970,-2516.700203,3404.947333,-75077.358804
12033.852528,-7846.182985,592.164754,-77069.207099
12033.855086,6957.935855,1480.411884,-79980.369991
12033.857644,-3701.029710,888.247130,-76762.768900
12033.860202,-6365.771101,-740.205942,-77988.521696
12033.862760,2960.823768,1924.535449,-77682.083497
12033.865318,3849.070898,-1628.453072,-77528.864398
12033.867876,-6217.729913,4589.276840,-76149.892501
12033.870434,-3404.947333,2960.823768,-78294.959896
12033.872992,-6513.812290,2368.659014,-78141.740796
12033.875551,-18357.107362,5181.441594,-75383.797003
12033.878109,-4885.359217,3701.029710,-79214.274493
12033.880667,0.000000,1332.370696,-77222.426198
12033.883225,4589.276840,1184.329507,-76915.987999
12033.885783,1924.535449,2664.741391,-77988.521696
12033.888341,-444.123565,-2368.659014,-77069.207099
12033.890899,3256.906145,-7550.100608,-77835.302597
12033.893457,-1332.370696,-5773.606348,-78754.617194
12033.896015,7105.977043,-2220.617826,-78448.178995
12033.898573,5625.565159,-4737.318029,-76762.768900
12033.901131,2368.659014,-4293.194464,-78601.398095
12033.903689,1924.535449,-3256.906145,-77835.302597
12033.906247,1776.494261,-3997.112087,-78907.836294
12033.908805,-1924.535449,-2812.782580,-77069.207099
12033.911363,8142.265362,-3849.070898,-79214.274493
12033.913922,3997.112087,-8586.388927,-78754.617194
12033.916480,1628.453072,-4145.153275,-78141.740796
12033.919038,-1924.535449,0.000000,-78448.178995
12033.921596,3108.864956,-7698.141797,-79061.055394
12033.924154,-1480.411884,296.082377,-77222.426198
12033.926712,-1036.288319,-4441.235652,-78294.959896
12033.929270,10510.924376,-5921.647536,-78448.178995
12033.931828,1036.288319,-9326.594869,-76915.987999
12033.934386,7402.059420,-4737.318029,-77069.207099
12033.936944,11547.212695,-4441.235652,-78754.617194
12033.939502,1924.535449,-7846.182985,-78754.617194
12033.942059,-888.247130,-444.123565,-76303.111601
12033.944617,6513.812290,-4589.276840,-78294.959896
12033.947175,-4293.194464,592.164754,-76762.768900
12033.949733,-1184.329507,2368.659014,-78141.740796
12033.952290,1924.535449,-296.082377,-77835.302597
12033.954848,-1924.535449,5329.482782,-76149.892501
12033.957406,-12583.501014,5773.606348,-77222.426198
12033.959964,-1332.370696,4589.276840,-79367.493593
12033.962522,3404.947333,444.123565,-78294.959896
12033.965079,-6809.894666,2368.659014,-76303.111601
12033.967637,296.082377,5181.441594,-78907.836294
12033.970195,-4885.359217,-2220.617826,-78448.178995
12033.972753,-9770.718434,1924.535449,-76456.330700
12033.975310,-2368.659014,2072.576638,-77835.302597
12033.977868,4293.194464,-1628.453072,-78754.617194
12033.980426,-148.041188,4589.276840,-76915.987999
12033.982984,-2960.823768,-2516.700203,-77375.645298
12033.985541,-888.247130,1924.535449,-78448.178995
12033.988099,2220.617826,1036.288319,-78294.959896
12033.990657,-9030.512492,4589.276840,-78601.398095
12033.993215,5625.565159,5477.523971,-78754.617194
12033.995773,-12731.542202,2368.659014,-78754.617194
12033.998330,-15544.324782,6069.688724,-76456.330700
12034.000888,-4293.194464,3404.947333,-78754.617194
12034.003446,5033.400406,2072.576638,-77375.645298
12034.006004,1924.535449,-1628.453072,-76762.768900
12034.008561,-296.082377,1776.494261,-77988.521696
12034.011119,444.123565,-2960.823768,-76303.111601
12034.013677,-3108.864956,-7254.018232,-76609.549800
12034.016235,2664.741391,-3108.864956,-80286.808190
12034.018791,6661.853478,-7254.018232,-79061.055394
12034.021348,1480.411884,-2072.576638,-76149.892501
12034.023905,7254.018232,-5773.606348,-77375.645298
12034.026461,3108.864956,-2072.576638,-76915.987999
12034.029018,-148.041188,-2220.617826,-78754.617194
12034.031575,-444.123565,-4589.276840,-79520.712692
12034.034131,12879.583391,-4737.318029,-79061.055394
12034.036688,-148.041188,-4441.235652,-77069.207099
12034.039245,1184.329507,-4441.235652,-77835.302597
12034.041801,4589.276840,-3552.988522,-78294.959896
12034.044358,-1332.370696,-3849.070898,-76915.987999
12034.046915,-1924.535449,-296.082377,-79061.055394
12034.049472,1036.288319,-4885.359217,-78448.178995
12034.052028,6809.894666,-8290.306550,-77375.645298
12034.054585,3997.112087,-5181.441594,-75537.016103
12034.057142,13767.830521,-10658.965565,-79214.274493
12034.059698,3701.029710,-1776.494261,-76149.892501
12034.062255,888.247130,-8586.388927,-78448.178995
12034.064812,4885.359217,-2812.782580,-77682.083497
12034.067368,6217.729913,-3404.947333,-76149.892501
12034.069925,-9326.594869,4145.153275,-76149.892501
12034.072482,4145.153275,-148.041188,-78601.398095
12034.075038,-1628.453072,1924.535449,-78601.398095
12034.077595,-12287.418637,3997.112087,-76303.111601
12034.080152,-6365.771101,7550.100608,-76762.768900
12034.082709,4293.194464,-1036.288319,-78448.178995
12034.085265,-3701.029710,5329.482782,-76303.111601
12034.087822,-1480.411884,2516.700203,-80133.589091
12034.090379,-1036.288319,148.041188,-79061.055394
12034.092935,-10955.047942,1480.411884,-77528.864398
12034.095492,-8438.347739,296.082377,-76456.330700
12034.098049,3552.988522,2664.741391,-77682.083497
12034.100605,740.205942,-1184.329507,-78141.740796
12034.103162,-3997.112087,1332.370696,-77988.521696
12034.105719,-1184.329507,1184.329507,-78601.398095
12034.108275,1332.370696,-2220.617826,-78448.178995
12034.110832,-11103.089130,5033.400406,-77682.083497
12034.113389,5921.647536,1628.453072,-79367.493593
12034.115946,-9326.594869,2664.741391,-76762.768900
12034.118502,-17172.777854,5477.523971,-74924.139704
12034.121059,-12287.418637,5625.565159,-78754.617194
12034.123615,1480.411884,-592.164754,-78294.959896
12034.126172,740.205942,-148.041188,-76915.987999
12034.128728,4885.359217,5033.400406,-77988.521696
12034.131285,-2072.576638,-3256.906145,-78141.740796
12034.133841,-1480.411884,-6809.894666,-75383.797003
12034.136398,2368.659014,-6513.812290,-78601.398095
12034.138954,5477.523971,-6513.812290,-79214.274493
12034.141511,6661.853478,-1924.535449,-76762.768900
12034.144067,4589.276840,-5329.482782,-77835.302597
12034.146624,6661.853478,-4589.276840,-78907.836294
12034.149181,-3108.864956,-3701.029710,-77988.521696
12034.151737,-1036.288319,-1776.494261,-78601.398095
12034.154294,11251.130318,-2368.659014,-78294.959896
12034.156850,-740.205942,-4737.318029,-77528.864398
12034.159407,3256.906145,-5033.400406,-79673.931792
12034.161963,296.082377,-3256.906145,-80899.684589
12034.164520,2664.741391,-2516.700203,-76456.330700
12034.167076,-2220.617826,-3256.906145,-76609.549800
12034.169633,3552.988522,-4145.153275,-76762.768900
12034.172189,5773.606348,-5625.565159,-77069.207099
12034.174746,296.082377,-7254.018232,-76762.768900
12034.177302,12583.501014,-8290.306550,-78601.398095
12034.179859,8438.347739,-5181.441594,-76303.111601
12034.182415,-444.123565,-4145.153275,-76303.111601
12034.184972,3997.112087,-3997.112087,-77222.426198
12034.187528,4145.153275,-3701.029710,-78141.740796
12034.190085,-3404.947333,2664.741391,-76456.330700
12034.192641,-148.041188,592.164754,-78907.836294
12034.195198,1776.494261,296.082377,-77988.521696
12034.197755,-15100.201217,4145.153275,-76303.111601
12034.200311,-4885.359217,8290.306550,-77988.521696
12034.202868,3404.947333,0.000000,-79367.493593
12034.205424,-2516.700203,4885.359217,-75383.797003
12034.207981,-5477.523971,740.205942,-77835.302597
12034.210537,-148.041188,-740.205942,-79520.712692
12034.213094,-6365.771101,3108.864956,-77375.645298
12034.215650,-11399.171507,1184.329507,-77069.207099
12034.218207,3256.906145,1480.411884,-77988.521696
12034.220763,888.247130,740.205942,-77682.083497
12034.223319,-4293.194464,3256.906145,-77988.521696
12034.225875,296.082377,1036.288319,-78907.836294
12034.228430,1776.494261,-148.041188,-77988.521696
12034.230986,-4441.235652,2960.823768,-77069.207099
12034.233542,-2812.782580,1480.411884,-78601.398095
12034.236098,-4441.235652,4737.318029,-76149.892501
12034.238653,-18505.148550,5625.565159,-75537.016103
12034.241209,-5329.482782,6217.729913,-78294.959896
12034.243765,2368.659014,-888.247130,-78448.178995
12034.246321,148.041188,592.164754,-75843.454302
12034.248876,-1184.329507,2664.741391,-78448.178995
12034.251432,6661.853478,-9770.718434,-78141.740796
12034.253988,1924.535449,-2664.741391,-75077.358804
12034.256544,-2960.823768,-5625.565159,-77835.302597
12034.259099,8142.265362,-2812.782580,-78448.178995
12034.261655,7254.018232,-6513.812290,-78754.617194
12034.264211,148.041188,-5181.441594,-77988.521696
12034.266767,10362.883188,-3552.988522,-76609.549800
12034.269322,-4441.235652,-4441.235652,-77222.426198
12034.271878,148.041188,148.041188,-79214.274493
12034.274434,8438.347739,-2368.659014,-78601.398095
12034.276989,5181.441594,-7105.977043,-76456.330700
12034.279545,-2220.617826,-4737.318029,-76149.892501
12034.282101,3256.906145,-3552.988522,-78754.617194
12034.284657,-740.205942,-444.123565,-77222.426198
12034.287212,-1628.453072,-5329.482782,-77835.302597
12034.289768,3997.112087,-4145.153275,-78294.959896
12034.292324,10362.883188,-8586.388927,-76762.768900
12034.294880,2220.617826,-8586.388927,-76915.987999
12034.297435,5329.482782,-5773.606348,-78601.398095
12034.299991,11547.212695,-8438.347739,-79061.055394
12034.302547,-1776.494261,-5181.441594,-76303.111601
12034.305103,3849.070898,-1924.535449,-77528.864398
12034.307658,148.041188,-2516.700203,-77988.521696
12034.310214,-740.205942,1924.535449,-76609.549800
12034.312770,-4885.359217,2516.700203,-79367.493593
12034.315326,-2960.823768,3849.070898,-77988.521696
12034.317881,-11251.130318,7994.224174,-76303.111601
12034.320437,-5033.400406,2960.823768,-76915.987999
12034.322993,-592.164754,4293.194464,-78754.617194
12034.325548,2664.741391,-2368.659014,-79673.931792
12034.328104,-9030.512492,2960.823768,-75690.235202
12034.330659,-5181.441594,2072.576638,-79673.931792
12034.333215,-5773.606348,-740.205942,-78294.959896
12034.335770,-1924.535449,1628.453072,-77528.864398
12034.338326,444.123565,3108.864956,-79367.493593
12034.340881,2072.576638,0.000000,-77682.083497
12034.343437,1036.288319,0.000000,-75996.673402
12034.345992,-10214.842000,2664.741391,-77528.864398
12034.348548,5477.523971,1776.494261,-78601.398095
12034.351103,-10214.842000,3997.112087,-78448.178995
12034.353659,-10955.047942,7846.182985,-76303.111601
12034.356214,-8290.306550,3404.947333,-78294.959896
12034.358770,-4145.153275,5625.565159,-76149.892501
12034.361325,-2072.576638,2220.617826,-78294.959896
12034.363881,5921.647536,-1776.494261,-79367.493593
12034.366436,1036.288319,1184.329507,-76303.111601
12034.368992,148.041188,-9178.553681,-76149.892501
12034.371547,4737.318029,-7402.059420,-77682.083497
12034.374103,4145.153275,-4737.318029,-77069.207099
12034.376658,-592.164754,-4737.318029,-76456.330700
12034.379214,9918.759623,-3256.906145,-78601.398095
12034.381769,3256.906145,-8142.265362,-76915.987999
12034.384325,-5329.482782,-2220.617826,-75690.235202
12034.386880,3997.112087,-2812.782580,-79673.931792
12034.389436,5773.606348,-6365.771101,-78907.836294
12034.391991,5625.565159,0.000000,-77375.645298
12034.394547,-1480.411884,-6217.729913,-78601.398095
12034.397102,6217.729913,-7994.224174,-80133.589091
12034.399658,-740.205942,1924.535449,-76149.892501
12034.402213,-5773.606348,-2368.659014,-77222.426198
12034.404769,12287.418637,-4885.359217,-79673.931792
12034.407324,-2664.741391,-7105.977043,-78141.740796
12034.409880,8290.306550,-6957.935855,-75843.454302
12034.412435,11399.171507,-7254.018232,-78294.959896
12034.414991,9030.512492,-4885.359217,-76303.111601
12034.417546,-2516.700203,-6217.729913,-78601.398095
12034.420102,8438.347739,-5477.523971,-79367.493593
12034.422657,-2812.782580,-2960.823768,-76456.330700
12034.425213,-4145.153275,5329.482782,-74311.263306
12034.427768,592.164754,888.247130,-79520.712692
12034.430324,-4737.318029,5773.606348,-77528.864398
12034.432880,-10658.965565,6809.894666,-74924.139704
12034.435435,-2812.782580,5477.523971,-78294.959896
12034.437991,3849.070898,296.082377,-78448.178995
12034.440547,-5773.606348,1480.411884,-76762.768900
12034.443103,1036.288319,2516.700203,-78448.178995
12034.445658,-2960.823768,-4145.153275,-79520.712692
12034.448214,-9326.594869,1628.453072,-77375.645298
12034.450770,-5181.441594,2220.617826,-78448.178995
12034.453325,1036.288319,2072.576638,-77988.521696
12034.455881,0.000000,3997.112087,-75230.577904
12034.458437,-7105.977043,-2368.659014,-79061.055394
12034.460992,1036.288319,3108.864956,-77835.302597
12034.463548,2220.617826,2220.617826,-78141.740796
12034.466104,-12583.501014,5773.606348,-77222.426198
12034.468660,1332.370696,5329.482782,-78754.617194
12034.471215,-14211.954086,3701.029710,-77682.083497
12034.473771,-8586.388927,7846.182985,-76149.892501
12034.476327,3701.029710,888.247130,-79061.055394
12034.478882,3552.988522,-148.041188,-76609.549800
12034.481438,-4145.153275,2516.700203,-77375.645298
12034.483994,2072.576638,-3404.947333,-77835.302597
12034.486549,6661.853478,-10807.006753,-77835.302597
12034.489105,-5181.441594,-3997.112087,-77222.426198
12034.491661,6661.853478,-3552.988522,-78448.178995
12034.494217,7846.182985,-6957.935855,-79367.493593
12034.496772,-888.247130,-4293.194464,-75383.797003
12034.499328,4441.235652,-3256.906145,-77682.083497
12034.501884,3997.112087,-5329.482782,-79827.150892
12034.504439,888.247130,-1184.329507,-76456.330700
12034.506995,4145.153275,-1628.453072,-78601.398095
12034.509551,7402.059420,-5477.523971,-79367.493593
12034.512106,5329.482782,-7402.059420,-78448.178995
12034.514662,-3552.988522,-1628.453072,-78141.740796
12034.517218,10807.006753,-5477.523971,-77375.645298
12034.519774,-1628.453072,-5477.523971,-77375.645298
12034.522329,2368.659014,-4145.153275,-76609.549800
12034.524885,11399.171507,-7402.059420,-79673.931792
12034.527441,10362.883188,-5921.647536,-76762.768900
12034.529996,4737.318029,-5329.482782,-77835.302597
12034.532551,6513.812290,-9030.512492,-78294.959896
12034.535106,2960.823768,-6513.812290,-76303.111601
12034.537661,-8142.265362,-888.247130,-75537.016103
12034.540216,3108.864956,2072.576638,-77835.302597
12034.542771,-2072.576638,1036.288319,-79061.055394
12034.545326,-10214.842000,6661.853478,-77375.645298
12034.547881,-5329.482782,8142.265362,-77988.521696
12034.550436,740.205942,1924.535449,-77682.083497
12034.552991,-4737.318029,5181.441594,-77222.426198
12034.555546,-1036.288319,1036.288319,-79980.369991
12034.558101,1628.453072,592.164754,-78294.959896
12034.560657,-7698.141797,-3108.864956,-77835.302597
12034.563212,-7402.059420,2220.617826,-77682.083497
12034.565767,592.164754,1628.453072,-78294.959896
12034.568322,-4885.359217,2960.823768,-76303.111601
12034.570877,-3701.029710,5477.523971,-76915.987999
12034.573432,2368.659014,-2664.741391,-78448.178995
12034.575987,-2664.741391,3552.988522,-78141.740796
12034.578542,-5921.647536,1628.453072,-77835.302597
12034.581097,1480.411884,5329.482782,-78754.617194
12034.583652,-8438.347739,4589.276840,-76609.549800
12034.586207,-16728.654289,5773.606348,-77222.426198
12034.588762,888.247130,4441.235652,-78294.959896
12034.591317,3256.906145,296.082377,-78141.740796
12034.593872,-3552.988522,2664.741391,-75537.016103
12034.596427,-740.205942,-1184.329507,-79980.369991
12034.598983,7550.100608,-7994.224174,-76303.111601
12034.601538,-2516.700203,-6661.853478,-75843.454302
12034.604093,4293.194464,-4441.235652,-79980.369991
12034.606648,5921.647536,-6365.771101,-77682.083497
12034.609203,592.164754,-6957.935855,-78294.959896
12034.611758,6957.935855,-1924.535449,-76609.549800
12034.614313,7698.141797,-5033.400406,-79980.369991
12034.616868,-2516.700203,-4885.359217,-78754.617194
12034.619423,4441.235652,-1184.329507,-78448.178995
12034.621978,6809.894666,-6217.729913,-78754.617194
12034.624533,1332.370696,-3997.112087,-76762.768900
12034.627088,-444.123565,-3997.112087,-77988.521696
12034.629643,5181.441594,-3552.988522,-77988.521696
12034.632198,-148.041188,-5181.441594,-77682.083497
12034.634753,-2072.576638,-5329.482782,-77835.302597
12034.637309,11547.212695,-5329.482782,-79520.712692
12034.639864,6957.935855,-7105.977043,-77528.864398
12034.642419,6661.853478,-4589.276840,-77375.645298
12034.644974,10066.800811,-7254.018232,-78448.178995
12034.647529,3552.988522,-9622.677246,-75843.454302
12034.650084,-4885.359217,0.000000,-76303.111601
12034.652639,1480.411884,-1480.411884,-77069.207099
12034.655194,2516.700203,2812.782580,-77682.083497
12034.657749,-9622.677246,3108.864956,-78754.617194
12034.660304,-9770.718434,7994.224174,-77528.864398
12034.662859,-444.123565,3849.070898,-77835.302597
12034.665414,-6513.812290,4737.318029,-76762.768900
12034.667969,1776.494261,3552.988522,-79367.493593
12034.670524,148.041188,-2368.659014,-80899.684589
12034.673079,-5181.441594,1332.370696,-75690.235202
12034.675634,-5477.523971,-2072.576638,-78754.617194
12034.678189,-2960.823768,1480.411884,-77682.083497
12034.680744,-5181.441594,-592.164754,-77222.426198
12034.683299,-2960.823768,3701.029710,-75996.673402
12034.685854,2812.782580,3701.029710,-77988.521696
12034.688409,148.041188,-1480.411884,-77988.521696
12034.690965,-9326.594869,5033.400406,-78141.740796
12034.693520,2220.617826,740.205942,-77988.521696
12034.696075,-9178.553681,5477.523971,-76915.987999
12034.698630,-14211.954086,3701.029710,-78601.398095
12034.701185,-296.082377,7994.224174,-77528.864398
12034.703740,-4441.235652,3256.906145,-77222.426198
12034.706295,-3997.112087,1480.411884,-77069.207099
12034.708850,1332.370696,3256.906145,-78601.398095
12034.711405,4589.276840,-7846.182985,-77069.207099
12034.713960,148.041188,-7698.141797,-76609.549800
12034.716515,2516.700203,-5625.565159,-79367.493593
12034.719070,3552.988522,-7105.977043,-77835.302597
12034.721625,1628.453072,-3849.070898,-76609.549800
12034.724180,5033.400406,-7254.018232,-78294.959896
12034.726735,1924.535449,-3701.029710,-77835.302597
12034.729290,0.000000,-888.247130,-76456.330700
12034.731845,-1184.329507,-2368.659014,-79673.931792
12034.734401,9474.636058,-5477.523971,-79214.274493
12034.736956,4441.235652,-7105.977043,-76456.330700
12034.739511,-2368.659014,-5329.482782,-77222.426198
12034.742067,444.123565,-740.205942,-76915.987999
12034.744622,4885.359217,-5477.523971,-77988.521696
12034.747177,-7105.977043,-3552.988522,-76303.111601
12034.749733,13323.706956,-7698.141797,-78448.178995
12034.752288,7994.224174,-5033.400406,-76609.549800
12034.754843,7698.141797,-3997.112087,-75690.235202
12034.757399,3256.906145,-7105.977043,-79061.055394
12034.759954,8142.265362,-10658.965565,-78601.398095
12034.762510,-9326.594869,-4441.235652,-77375.645298
12034.765065,2664.741391,4737.318029,-77682.083497
12034.767620,-592.164754,888.247130,-79673.931792
12034.770176,-10955.047942,5625.565159,-77069.207099
12034.772731,-7254.018232,9918.759623,-79061.055394
12034.775286,0.000000,1332.370696,-79673.931792
12034.777842,-1480.411884,6217.729913,-75996.673402
12034.780397,-6069.688724,-740.205942,-79673.931792
12034.782952,592.164754,1924.535449,-77682.083497
12034.785508,-1480.411884,-2516.700203,-77682.083497
12034.788063,-12287.418637,-740.205942,-77222.426198
12034.790618,3256.906145,2220.617826,-78294.959896
12034.793174,-1480.411884,2368.659014,-77069.207099
12034.795729,-3701.029710,6069.688724,-75843.454302
12034.798284,1184.329507,3997.112087,-79520.712692
12034.800840,1184.329507,-2960.823768,-78141.740796
12034.803395,-7698.141797,5329.482782,-76149.892501
12034.805951,-6069.688724,3108.864956,-78141.740796
12034.808506,-7846.182985,4441.235652,-75537.016103
12034.811061,-14359.995275,3256.906145,-76609.549800
12034.813617,-1480.411884,6661.853478,-78141.740796
12034.816172,3256.906145,0.000000,-77988.521696
12034.818727,-8438.347739,3849.070898,-76456.330700
12034.821283,2812.782580,296.082377,-77069.207099
12034.823838,8882.471304,-11399.171507,-78294.959896
12034.826393,148.041188,-5033.400406,-77222.426198
12034.828949,740.205942,-7105.977043,-79214.274493
12034.831504,9326.594869,-10214.842000,-79214.274493
12034.834059,4589.276840,-4589.276840,-76915.987999
12034.836614,-2516.700203,-2220.617826,-77069.207099
12034.839169,9770.718434,-5181.441594,-79673.931792
12034.841724,-296.082377,0.000000,-77069.207099
12034.844279,2812.782580,-2812.782580,-75383.797003
12034.846833,4293.194464,-5773.606348,-79061.055394
12034.849388,2072.576638,-5477.523971,-77528.864398
12034.851943,-4441.235652,-2072.576638,-76762.768900
12034.854498,5477.523971,-4293.194464,-77988.521696
12034.857052,888.247130,-6809.894666,-75537.016103
12034.859607,3701.029710,-3108.864956,-76456.330700
12034.862162,7846.182985,-8142.265362,-78907.836294
12034.864717,12287.418637,-4885.359217,-79214.274493
12034.867271,2220.617826,-7846.182985,-77069.207099
12034.869826,5329.482782,-8290.306550,-76456.330700
12034.872381,2516.700203,-6069.688724,-77528.864398
12034.874936,-4589.276840,-296.082377,-76915.987999
12034.877491,1036.288319,3552.988522,-78907.836294
12034.880045,-3552.988522,444.123565,-79980.369991
12034.882600,-12435.459826,9622.677246,-75843.454302
12034.885155,-5033.400406,8142.265362,-77988.521696
12034.887710,2812.782580,6069.688724,-76609.549800
12034.890264,-444.123565,-592.164754,-77988.521696
12034.892819,-8882.471304,2072.576638,-79367.493593
12034.895374,1480.411884,-3552.988522,-79980.369991
12034.897929,-5329.482782,-2960.823768,-76609.549800
12034.900484,-4145.153275,3849.070898,-77375.645298
12034.903038,3849.070898,2664.741391,-79214.274493
12034.905593,148.041188,5921.647536,-78448.178995
12034.908148,-5773.606348,296.082377,-77528.864398
12034.910703,296.082377,740.205942,-79980.369991
12034.913257,2812.782580,2812.782580,-78141.740796
12034.915812,-13175.665768,3404.947333,-77222.426198
12034.918367,-7105.977043,4145.153275,-77222.426198
12034.920922,-8586.388927,3108.864956,-77222.426198
12034.923476,-10066.800811,5773.606348,-75077.358804
12034.926031,3256.906145,3108.864956,-78448.178995
12034.928586,-3552.988522,2960.823768,-77222.426198
12034.931141,-592.164754,2516.700203,-77069.207099
12034.933696,444.123565,-6513.812290,-77988.521696
12034.936250,9474.636058,-9770.718434,-78754.617194
12034.938805,-592.164754,-9326.594869,-79520.712692
12034.941359,3701.029710,-7105.977043,-78907.836294
12034.943914,8882.471304,-7105.977043,-79827.150892
12034.946469,148.041188,-3108.864956,-75230.577904
12034.949023,-2812.782580,-740.205942,-77988.521696
12034.951578,7402.059420,-4145.153275,-79061.055394
12034.954132,592.164754,-1924.535449,-77682.083497
12034.956687,-1776.494261,1184.329507,-74924.139704
12034.959241,2516.700203,-9326.594869,-78601.398095
12034.961796,3404.947333,-2960.823768,-76303.111601
12034.964351,-4441.235652,-4737.318029,-77375.645298
12034.966905,6217.729913,-5181.441594,-77222.426198
12034.969460,5921.647536,-5181.441594,-75843.454302
12034.972014,2960.823768,-6217.729913,-77375.645298
12034.974569,12435.459826,-4589.276840,-79061.055394
12034.977123,10362.883188,-6957.935855,-77682.083497
12034.979678,-592.164754,-7402.059420,-75230.577904
12034.982233,-4145.153275,-1924.535449,-77528.864398
12034.984787,3849.070898,-3849.070898,-78448.178995
12034.987342,-5329.482782,3552.988522,-77222.426198
12034.989896,-5477.523971,7994.224174,-79980.369991
12034.992451,-4589.276840,7846.182985,-77528.864398
12034.995005,-10214.842000,7846.182985,-75843.454302
12034.997560,1332.370696,6069.688724,-77375.645298
12035.000114,888.247130,-1184.329507,-78907.836294
12035.002669,-1184.329507,888.247130,-77069.207099
12035.005224,-10658.965565,-2664.741391,-78754.617194
12035.007778,1776.494261,-592.164754,-78141.740796
12035.010333,-1924.535449,3849.070898,-77375.645298
12035.012887,-2664.741391,888.247130,-79061.055394
12035.015442,4145.153275,4589.276840,-78141.740796
12035.017996,3701.029710,-1480.411884,-76149.892501
12035.020551,-8586.388927,5033.400406,-77375.645298
12035.023106,3108.864956,2072.576638,-80133.589091
12035.025660,-7550.100608,2812.782580,-77988.521696
12035.028215,-13471.748144,5625.565159,-75690.235202
12035.030769,-6217.729913,2516.700203,-77682.083497
12035.033324,2220.617826,4589.276840,-77069.207099
12035.035878,-7550.100608,2368.659014,-78141.740796
12035.038433,-1924.535449,5921.647536,-77988.521696
12035.040991,7105.977043,-5477.523971,-77069.207099
12035.043546,2072.576638,-10362.883188,-74617.701505
12035.046100,5181.441594,-5329.482782,-76762.768900
12035.048655,5773.606348,-10658.965565,-79061.055394
12035.051209,3701.029710,-6809.894666,-78294.959896
12035.053764,1480.411884,-2664.741391,-79980.369991
12035.056319,5477.523971,-6957.935855,-78141.740796
12035.058873,5773.606348,444.123565,-77528.864398
12035.061428,2960.823768,-888.247130,-78294.959896
12035.063982,5625.565159,-3701.029710,-79214.274493
12035.066537,-888.247130,-7105.977043,-77222.426198
12035.069092,-444.123565,-7698.141797,-78294.959896
12035.071646,3108.864956,-592.164754,-77222.426198
12035.074201,2072.576638,-7105.977043,-76609.549800
12035.076755,-2516.700203,-3849.070898,-74770.920605
12035.079310,11843.295072,-5477.523971,-77222.426198
12035.081865,8586.388927,-5773.606348,-78294.959896
12035.084419,4145.153275,-4145.153275,-77988.521696
12035.086974,9474.636058,-9030.512492,-78141.740796
12035.089528,296.082377,-4441.235652,-74617.701505
12035.092083,-4293.194464,-3997.112087,-76915.987999
12035.094638,-592.164754,5477.523971,-77835.302597
12035.097192,-2960.823768,1628.453072,-80133.589091
12035.099747,-13619.789333,9770.718434,-76762.768900
12035.102301,-1628.453072,10510.924376,-78754.617194
12035.104856,1184.329507,4885.359217,-77528.864398
12035.107410,-6661.853478,1480.411884,-75383.797003
12035.109965,-2664.741391,-444.123565,-79980.369991
12035.112520,592.164754,-4441.235652,-79673.931792
12035.115074,-6957.935855,-2664.741391,-75996.673402
12035.117629,-8734.430116,3256.906145,-77988.521696
12035.120183,2664.741391,3404.947333,-78907.836294
12035.122738,1924.535449,3552.988522,-78448.178995
12035.125293,-8734.430116,5181.441594,-76456.330700
12035.127847,2812.782580,2812.782580,-77528.864398
12035.130402,-7105.977043,3404.947333,-78754.617194
12035.132956,-7846.182985,3404.947333,-78294.959896
12035.135511,-5921.647536,2960.823768,-78141.740796
12035.138066,-5329.482782,2368.659014,-75690.235202
12035.140620,-6957.935855,4441.235652,-75843.454302
12035.143139,1924.535449,6069.688724,-79673.931792
12035.145658,-1332.370696,2220.617826,-78141.740796
12035.148177,2072.576638,-1332.370696,-75843.454302
12035.150696,7994.224174,-7994.224174,-78601.398095
12035.153215,5773.606348,-8882.471304,-78601.398095
12035.155733,444.123565,-9178.553681,-76762.768900
12035.158252,3701.029710,-9474.636058,-80133.589091
12035.160771,4885.359217,-3256.906145,-79061.055394
12035.163290,3701.029710,-4145.153275,-77375.645298
12035.165809,0.000000,444.123565,-75996.673402
12035.168328,7698.141797,-1332.370696,-79214.274493
12035.170847,4737.318029,-4441.235652,-75537.016103
12035.173366,-3701.029710,-2812.782580,-75077.358804
12035.175884,3108.864956,-3701.029710,-78448.178995
12035.178403,2812.782580,-5477.523971,-78601.398095
12035.180922,-4589.276840,-7698.141797,-76456.330700
12035.183441,4145.153275,-3849.070898,-77528.864398
12035.185960,12583.501014,-6513.812290,-78448.178995
12035.188479,5033.400406,-6809.894666,-77835.302597
12035.190998,11103.089130,-4737.318029,-78754.617194
12035.193517,6365.771101,-11251.130318,-79827.150892
12035.196035,-7254.018232,-2960.823768,-74311.263306
12035.198554,-1776.494261,-2812.782580,-77682.083497
12035.201073,2072.576638,1776.494261,-77682.083497
12035.203592,-12287.418637,8882.471304,-77682.083497
12035.206111,-11695.253884,14211.954086,-77069.207099
12035.208630,4293.194464,5033.400406,-79980.369991
12035.211149,-3108.864956,3404.947333,-75843.454302
12035.213668,-4293.194464,592.164754,-76915.987999
12035.216186,148.041188,-1036.288319,-79214.274493
12035.218705,-4885.359217,-1036.288319,-77069.207099
12035.221224,-9770.718434,-888.247130,-78141.740796
12035.223743,2960.823768,1628.453072,-78448.178995
12035.226262,2516.700203,1184.329507,-77988.521696
12035.228781,-2960.823768,3552.988522,-74617.701505
12035.231300,-4589.276840,3552.988522,-76762.768900
12035.233819,2072.576638,592.164754,-78754.617194
12035.236337,-13323.706956,4737.318029,-77835.302597
12035.238856,-6661.853478,3404.947333,-78448.178995
12035.241375,-6513.812290,1924.535449,-76303.111601
12035.243901,-8142.265362,2516.700203,-76149.892501
12035.246428,2368.659014,7254.018232,-78448.178995
12035.248954,-1036.288319,4737.318029,-79520.712692
12035.251480,5773.606348,444.123565,-76456.330700
12035.254006,4885.359217,-7105.977043,-78907.836294
12035.256533,8290.306550,-10214.842000,-79520.712692
12035.259059,592.164754,-9770.718434,-77222.426198
12035.261585,148.041188,-10214.842000,-78294.959896
12035.264111,11251.130318,-8586.388927,-79520.712692
12035.266637,-1332.370696,-3108.864956,-77222.426198
12035.269164,1924.535449,0.000000,-80593.246390
12035.271690,6513.812290,-888.247130,-78448.178995
12035.274216,1332.370696,-3552.988522,-75996.673402
12035.276742,592.164754,-2960.823768,-76149.892501
12035.279269,592.164754,-5773.606348,-78754.617194
12035.281795,5921.647536,-6513.812290,-76762.768900
12035.284321,-3404.947333,-3552.988522,-77835.302597
12035.286847,8438.347739,-7105.977043,-78294.959896
12035.289374,2960.823768,-5921.647536,-76149.892501
12035.291900,6069.688724,-3849.070898,-75230.577904
12035.294426,8142.265362,-5773.606348,-79980.369991
12035.296952,9770.718434,-8142.265362,-78448.178995
12035.299478,-3849.070898,-5773.606348,-77222.426198
12035.302005,-1480.411884,-2220.617826,-78448.178995
12035.304531,2812.782580,-296.082377,-78754.617194
12035.307057,-16284.530724,4589.276840,-77528.864398
12035.309583,-4737.318029,10214.842000,-79980.369991
12035.312110,-444.123565,6809.894666,-79673.931792
12035.314636,-5181.441594,10510.924376,-75383.797003
12035.317162,-4885.359217,3552.988522,-77069.207099
12035.319688,296.082377,-3997.112087,-81052.903688
12035.322215,-3997.112087,296.082377,-77835.302597
12035.324746,-14359.995275,-4145.153275,-77835.302597
12035.327278,1924.535449,5477.523971,-77222.426198
12035.329810,2812.782580,0.000000,-79980.369991
12035.332342,-6069.688724,5773.606348,-78754.617194
12035.334874,4293.194464,5033.400406,-77682.083497
12035.337406,-2960.823768,592.164754,-76915.987999
12035.339938,-13915.871710,6809.894666,-76762.768900
12035.342470,-6661.853478,1480.411884,-79980.369991
12035.345002,-9918.759623,4293.194464,-75537.016103
12035.347534,-5477.523971,3256.906145,-75996.673402
12035.350066,-740.205942,3256.906145,-79214.274493
12035.352598,-592.164754,6069.688724,-78141.740796
12035.355130,-5625.565159,444.123565,-77988.521696
12035.357662,11547.212695,-5033.400406,-77835.302597
12035.360194,3849.070898,-10362.883188,-79061.055394
12035.362726,-1628.453072,-10955.047942,-77375.645298
12035.365258,2960.823768,-8882.471304,-78907.836294
12035.367790,8438.347739,-11843.295072,-78601.398095
12035.370322,888.247130,444.123565,-76149.892501
12035.372854,296.082377,-1036.288319,-80133.589091
12035.375386,8290.306550,-1776.494261,-78754.617194
12035.377918,296.082377,-2072.576638,-77222.426198
12035.380450,-3552.988522,-1628.453072,-76762.768900
12035.382982,8142.265362,-5625.565159,-78294.959896
12035.385514,4145.153275,-6661.853478,-77375.645298
12035.388046,-6069.688724,-3552.988522,-76762.768900
12035.390577,8142.265362,-7402.059420,-77375.645298
12035.393109,4293.194464,-7550.100608,-74924.139704
12035.395641,7254.018232,-3997.112087,-77222.426198
12035.398173,11843.295072,-7550.100608,-80133.589091
12035.400705,10066.800811,-5773.606348,-77988.521696
12035.403237,-6069.688724,-6069.688724,-77222.426198
12035.405769,-1776.494261,0.000000,-77528.864398
12035.408301,1480.411884,-1184.329507,-78448.178995
12035.410833,-12139.377449,5921.647536,-77835.302597
12035.413365,-6217.729913,12435.459826,-79214.274493
12035.415897,296.082377,8438.347739,-78294.959896
12035.418429,-5181.441594,4589.276840,-76762.768900
12035.420961,-740.205942,2664.741391,-77988.521696
12035.423493,-2072.576638,-3997.112087,-78294.959896
12035.426025,-9178.553681,-1332.370696,-77682.083497
12035.428557,-8438.347739,-444.123565,-77528.864398
12035.431089,1924.535449,1036.288319,-78141.740796
12035.433621,4293.194464,2220.617826,-79214.274493
12035.436153,-5329.482782,2960.823768,-78448.178995
12035.438685,3404.947333,5773.606348,-76762.768900
12035.441217,-5181.441594,3108.864956,-77222.426198
12035.443749,-9030.512492,4441.235652,-77835.302597
12035.446286,-5033.400406,148.041188,-80286.808190
12035.448824,-9178.553681,6957.935855,-75537.016103
12035.451362,-6217.729913,4885.359217,-74770.920605
12035.453899,-740.205942,4589.276840,-79520.712692
12035.456437,-2368.659014,5477.523971,-78448.178995
12035.458975,-1332.370696,-1776.494261,-77835.302597
12035.461512,11399.171507,-5921.647536,-77988.521696
12035.464050,2960.823768,-10214.842000,-77682.083497
12035.466587,148.041188,-11695.253884,-76303.111601
12035.469125,3997.112087,-9622.677246,-79061.055394
12035.471663,6069.688724,-10510.924376,-77528.864398
12035.474200,-296.082377,1184.329507,-78601.398095
12035.476738,4293.194464,740.205942,-79827.150892
12035.479276,10807.006753,-4145.153275,-77988.521696
12035.481813,1480.411884,2664.741391,-76915.987999
12035.484351,-1480.411884,-8882.471304,-78448.178995
12035.486889,3849.070898,-3108.864956,-78294.959896
12035.489426,1184.329507,-6661.853478,-76915.987999
12035.491964,296.082377,-4293.194464,-78601.398095
12035.494502,11991.336260,-10214.842000,-78448.178995
12035.497039,9178.553681,-7994.224174,-76149.892501
12035.499577,5921.647536,-3552.988522,-76915.987999
12035.502114,10807.006753,-6661.853478,-78294.959896
12035.504652,2960.823768,-7402.059420,-76456.330700
12035.507190,-5773.606348,-592.164754,-76303.111601
12035.509727,3108.864956,-6069.688724,-78448.178995
12035.512265,-4737.318029,4441.235652,-76762.768900
12035.514803,-12583.501014,7550.100608,-77682.083497
12035.517340,-3701.029710,13027.624579,-77528.864398
12035.519878,5477.523971,5625.565159,-79980.369991
12035.522416,-7402.059420,2664.741391,-76609.549800
12035.524953,-1184.329507,-888.247130,-78754.617194
12035.527495,-2072.576638,-5625.565159,-79061.055394
12035.530037,-7254.018232,-2072.576638,-76915.987999
12035.532579,-2812.782580,2220.617826,-78907.836294
12035.535121,1480.411884,-2812.782580,-78448.178995
12035.537663,-3849.070898,5625.565159,-77222.426198
12035.540205,444.123565,6069.688724,-76456.330700
12035.542747,4145.153275,4885.359217,-77375.645298
12035.545289,-8586.388927,2664.741391,-79214.274493
12035.547831,-14211.954086,4589.276840,-78294.959896
12035.550372,-2220.617826,3552.988522,-79061.055394
12035.552914,-4441.235652,3701.029710,-75077.358804
12035.555456,-4145.153275,5773.606348,-76915.987999
12035.557998,-888.247130,4441.235652,-78907.836294
12035.560540,1332.370696,3701.029710,-78141.740796
12035.563082,5033.400406,-7105.977043,-75996.673402
12035.565624,-3256.906145,-10066.800811,-77988.521696
12035.568166,8290.306550,-10214.842000,-78141.740796
12035.570708,2960.823768,-12731.542202,-78141.740796
12035.573250,-888.247130,-3701.029710,-77835.302597
12035.575792,7105.977043,-2220.617826,-79827.150892
12035.578334,1776.494261,296.082377,-77682.083497
12035.580875,-888.247130,-2664.741391,-79061.055394
12035.583417,6809.894666,-1332.370696,-77069.207099
12035.585959,1924.535449,-1036.288319,-76149.892501
12035.588501,-2812.782580,-6661.853478,-76609.549800
12035.591043,2960.823768,-3552.988522,-79367.493593
12035.593585,3404.947333,-10066.800811,-78294.959896
12035.596127,-148.041188,-5773.606348,-75843.454302
12035.598669,11103.089130,-6957.935855,-77835.302597
12035.601211,11547.212695,-5329.482782,-76762.768900
12035.603753,4293.194464,-7994.224174,-78754.617194
12035.606295,4589.276840,-4885.359217,-78907.836294
12035.608837,4737.318029,-3404.947333,-78601.398095
12035.611378,-9178.553681,-1924.535449,-76762.768900
12035.613920,-8290.306550,7402.059420,-77682.083497
12035.616462,-2368.659014,6809.894666,-77682.083497
12035.619004,-7550.100608,14359.995275,-76303.111601
12035.621546,-444.123565,9178.553681,-79827.150892
12035.624088,740.205942,1628.453072,-78448.178995
12035.626630,-7254.018232,-2960.823768,-77069.207099
12035.629175,-3404.947333,-444.123565,-78754.617194
12035.631721,-296.082377,444.123565,-78141.740796
12035.634266,148.041188,-2072.576638,-77988.521696
12035.636811,-4293.194464,5773.606348,-78907.836294
12035.639357,1924.535449,4737.318029,-79214.274493
12035.641902,1776.494261,4145.153275,-75537.016103
12035.644448,-13323.706956,4145.153275,-76303.111601
12035.646993,2072.576638,4441.235652,-79827.150892
12035.649538,-14508.036463,2220.617826,-79061.055394
12035.652084,-10955.047942,4441.235652,-77222.426198
12035.654629,2072.576638,5921.647536,-77375.645298
12035.657174,-2072.576638,3404.947333,-76915.987999
12035.659720,-8882.471304,3256.906145,-77375.645298
12035.662265,8586.388927,-2368.659014,-78294.959896
12035.664811,13323.706956,-9474.636058,-76915.987999
12035.667356,-3404.947333,-6217.729913,-76149.892501
12035.669901,4589.276840,-12879.583391,-79673.931792
12035.672447,2960.823768,-15100.201217,-77375.645298
12035.674992,2516.700203,-5181.441594,-74004.825107
12035.677537,148.041188,592.164754,-78754.617194
12035.680083,12731.542202,592.164754,-79214.274493
12035.682628,3701.029710,-4441.235652,-78754.617194
12035.685174,-7254.018232,444.123565,-76149.892501
12035.687719,8882.471304,-3997.112087,-77988.521696
12035.690264,-2072.576638,-4885.359217,-77222.426198
12035.692810,-2812.782580,-5477.523971,-80133.589091
12035.695355,7254.018232,-5921.647536,-78754.617194
12035.697900,3849.070898,-7698.141797,-75996.673402
12035.700446,5625.565159,-4293.194464,-76609.549800
12035.702991,12731.542202,-6661.853478,-78907.836294
12035.705537,7254.018232,-11103.089130,-78448.178995
12035.708082,-2664.741391,-1924.535449,-75843.454302
12035.710627,-2220.617826,-2368.659014,-78448.178995
12035.713173,-3404.947333,-148.041188,-76915.987999
12035.715718,-12879.583391,6365.771101,-77069.207099
12035.718263,-5329.482782,11251.130318,-78448.178995
12035.720809,296.082377,7698.141797,-80440.027290
12035.723354,-5921.647536,6957.935855,-76609.549800
12035.725900,-592.164754,-148.041188,-77375.645298
12035.728445,-740.205942,-3108.864956,-77682.083497
12035.730994,-11399.171507,-3404.947333,-77375.645298
12035.733542,-6661.853478,1332.370696,-79367.493593
12035.736091,4145.153275,-740.205942,-78754.617194
12035.738640,592.164754,6217.729913,-76456.330700
12035.741188,-592.164754,3997.112087,-78907.836294
12035.743737,3849.070898,8142.265362,-78448.178995
12035.746286,-6365.771101,2960.823768,-78141.740796
12035.748834,-13175.665768,3849.070898,-77682.083497
12035.751383,-5773.606348,3404.947333,-79827.150892
12035.753931,-3256.906145,3997.112087,-75996.673402
12035.756480,-6809.894666,5033.400406,-76149.892501
12035.759029,-888.247130,4737.318029,-78448.178995
12035.761577,-444.123565,1480.411884,-78141.740796
12035.764126,8438.347739,-4293.194464,-77069.207099
12035.766675,3849.070898,-7550.100608,-78448.178995
12035.769223,5773.606348,-14359.995275,-77988.521696
12035.771772,-2072.576638,-12731.542202,-76456.330700
12035.774321,5773.606348,-9918.759623,-78907.836294
12035.776869,5625.565159,-3849.070898,-78294.959896
12035.779418,-592.164754,1332.370696,-78448.178995
12035.781967,2516.700203,-1628.453072,-79827.150892
12035.784515,6217.729913,148.041188,-75690.235202
12035.787064,-2368.659014,-2220.617826,-75077.358804
12035.789613,-2664.741391,-5181.441594,-77988.521696
12035.792161,7105.977043,-5329.482782,-80286.808190
12035.794710,2072.576638,-7698.141797,-77222.426198
12035.797259,1924.535449,-5773.606348,-75996.673402
12035.799807,15840.407159,-6069.688724,-77835.302597
12035.802356,8734.430116,-9178.553681,-77988.521696
12035.804905,6365.771101,-5625.565159,-78754.617194
12035.807453,6365.771101,-7402.059420,-78907.836294
12035.810002,-4441.235652,-444.123565,-76456.330700
12035.812550,-6661.853478,-148.041188,-76915.987999
12035.815099,-10658.965565,8290.306550,-78294.959896
12035.817648,-3552.988522,8142.265362,-76609.549800
12035.820196,-7402.059420,14359.995275,-75230.577904
12035.822745,4145.153275,8438.347739,-78754.617194
12035.825294,-3256.906145,1776.494261,-77682.083497
12035.827842,-7846.182985,-5181.441594,-75996.673402
12035.830391,-2812.782580,148.041188,-78754.617194
12035.832942,-4737.318029,-2368.659014,-78294.959896
12035.835492,-3849.070898,1924.535449,-76915.987999
12035.838043,888.247130,3552.988522,-80746.465489
12035.840593,2812.782580,3552.988522,-79214.274493
12035.843144,-3108.864956,5477.523971,-76609.549800
12035.845694,-10214.842000,7254.018232,-77375.645298
12035.848245,-1628.453072,3997.112087,-78907.836294
12035.850795,-13915.871710,2812.782580,-79367.493593
12035.853346,-4737.318029,2960.823768,-78294.959896
12035.855896,2812.782580,3108.864956,-77835.302597
12035.858447,-5033.400406,5477.523971,-76456.330700
12035.860998,1480.411884,1776.494261,-76456.330700
12035.863548,11843.295072,-6809.894666,-78907.836294
12035.866099,4737.318029,-6069.688724,-76303.111601
12035.868649,-148.041188,-12435.459826,-78141.740796
12035.871200,3404.947333,-14508.036463,-79061.055394
12035.873750,8290.306550,-9030.512492,-75537.016103
12035.876301,-4589.276840,-3552.988522,-76149.892501
12035.878851,6217.729913,1776.494261,-79214.274493
12035.881402,9326.594869,-2368.659014,-78907.836294
12035.883952,-2220.617826,-4145.153275,-75690.235202
12035.886503,1628.453072,-1184.329507,-77222.426198
12035.889053,1332.370696,-7550.100608,-77835.302597
12035.891604,1480.411884,-6069.688724,-78294.959896
12035.894155,-444.123565,-4737.318029,-78601.398095
12035.896705,13175.665768,-10510.924376,-77835.302597
12035.899256,1332.370696,-7402.059420,-77069.207099
12035.901806,4441.235652,-8290.306550,-77375.645298
12035.904357,12287.418637,-7698.141797,-79827.150892
12035.906907,-3256.906145,-6069.688724,-77222.426198
12035.909458,-4145.153275,0.000000,-77375.645298
12035.912008,-1036.288319,148.041188,-78754.617194
12035.914559,-6661.853478,6809.894666,-77375.645298
12035.917109,-12879.583391,12287.418637,-78448.178995
12035.919660,3849.070898,10066.800811,-77682.083497
12035.922210,-444.123565,5773.606348,-76303.111601
12035.924761,-7105.977043,-2072.576638,-74924.139704
12035.927312,-4885.359217,-444.123565,-77988.521696
12035.929862,-888.247130,-6217.729913,-78294.959896
12035.932413,-7846.182985,-296.082377,-77682.083497
12035.934932,1924.535449,-1628.453072,-78907.836294
12035.937451,1628.453072,7105.977043,-75077.358804
12035.939971,-5033.400406,3256.906145,-75537.016103
12035.942490,-1776.494261,6513.812290,-79214.274493
12035.945010,-1480.411884,2368.659014,-76915.987999
12035.947529,-13767.830521,1480.411884,-77835.302597
12035.950048,-11991.336260,4145.153275,-78754.617194
12035.952568,5033.400406,2960.823768,-77528.864398
12035.955087,-5033.400406,5329.482782,-75843.454302
12035.957607,-5773.606348,6661.853478,-77988.521696
12035.960126,9030.512492,-4885.359217,-80440.027290
12035.962646,8586.388927,-4589.276840,-76609.549800
12035.965165,-1332.370696,-7254.018232,-79367.493593
12035.967684,5773.606348,-11695.253884,-78141.740796
12035.970204,6217.729913,-14359.995275,-78754.617194
12035.972723,-2664.741391,-6661.853478,-75537.016103
12035.975243,9030.512492,3256.906145,-78141.740796
12035.977762,3997.112087,-2220.617826,-78907.836294
12035.980281,0.000000,-888.247130,-76609.549800
12035.982801,-148.041188,-2368.659014,-78448.178995
12035.985320,3108.864956,-7105.977043,-78294.959896
12035.987840,888.247130,-7698.141797,-79061.055394
12035.990359,-1480.411884,-3108.864956,-79061.055394
12035.992878,14063.912898,-9326.594869,-78448.178995
12035.995398,11399.171507,-8290.306550,-74617.701505
12035.997917,6513.812290,-7105.977043,-76303.111601
12036.000437,9918.759623,-8142.265362,-79367.493593
12036.002956,2072.576638,-5921.647536,-76456.330700
12036.005476,-7846.182985,-1036.288319,-75996.673402
12036.007995,2960.823768,-888.247130,-78141.740796
12036.010514,-10510.924376,3404.947333,-79520.712692
12036.013034,-10362.883188,10066.800811,-76149.892501
12036.015553,-2664.741391,12139.377449,-78601.398095
12036.018073,3849.070898,6957.935855,-77835.302597
12036.020592,-2368.659014,3552.988522,-76149.892501
12036.023111,-5773.606348,-4441.235652,-79214.274493
12036.025631,3849.070898,-2812.782580,-77375.645298
12036.028150,-9030.512492,-3108.864956,-77835.302597
12036.030670,-4145.153275,3552.988522,-78294.959896
12036.033189,5477.523971,-1480.411884,-79520.712692
12036.035713,-7550.100608,5773.606348,-75843.454302
12036.038242,-8142.265362,7550.100608,-77222.426198
12036.040770,-2664.741391,3849.070898,-79673.931792
12036.043299,-9622.677246,6217.729913,-76456.330700
12036.045827,-15840.407159,2072.576638,-79214.274493
12036.048356,888.247130,148.041188,-78448.178995
12036.050884,-148.041188,6957.935855,-75996.673402
12036.053412,-8882.471304,3404.947333,-78294.959896
12036.055941,10955.047942,1776.494261,-78754.617194
12036.058469,8882.471304,-10214.842000,-78141.740796
12036.060998,-3256.906145,-7254.018232,-76303.111601
12036.063526,5773.606348,-11991.336260,-78141.740796
12036.066055,4737.318029,-17320.819043,-78907.836294
12036.068583,1184.329507,-5181.441594,-75537.016103
12036.071112,4145.153275,296.082377,-79367.493593
12036.073640,8734.430116,-592.164754,-77375.645298
12036.076168,1480.411884,-1924.535449,-77069.207099
12036.078697,-888.247130,1184.329507,-76762.768900
12036.081225,3108.864956,-7550.100608,-76303.111601
12036.083754,1776.494261,-4441.235652,-78448.178995
12036.086282,-3552.988522,-5625.565159,-78601.398095
12036.088811,12879.583391,-8438.347739,-78294.959896
12036.091339,6365.771101,-6513.812290,-74770.920605
12036.093868,9918.759623,-7402.059420,-77835.302597
12036.096396,13619.789333,-9326.594869,-80440.027290
12036.098925,4589.276840,-5773.606348,-78141.740796
12036.101453,-7846.182985,-148.041188,-78294.959896
12036.103981,2516.700203,-2960.823768,-77988.521696
12036.106510,-11843.295072,6217.729913,-78601.398095
12036.109038,-10510.924376,11251.130318,-76762.768900
12036.111567,-1184.329507,11991.336260,-79673.931792
12036.114095,2516.700203,7846.182985,-75383.797003
12036.116624,-6365.771101,2516.700203,-75996.673402
12036.119152,-1628.453072,-1332.370696,-77835.302597
12036.121681,-8142.265362,-7698.141797,-78141.740796
12036.124209,-8882.471304,-740.205942,-77835.302597
12036.126737,1184.329507,592.164754,-79061.055394
12036.129266,5033.400406,3552.988522,-78294.959896
12036.131794,-2368.659014,3404.947333,-75996.673402
12036.134323,-6957.935855,6957.935855,-78448.178995
12036.136858,0.000000,3997.112087,-78448.178995
12036.139394,-16728.654289,3997.112087,-77682.083497
12036.141929,-8882.471304,3849.070898,-77988.521696
12036.144464,296.082377,0.000000,-79214.274493
12036.147000,-4737.318029,5625.565159,-75537.016103
12036.149535,-5921.647536,6513.812290,-75690.235202
12036.152070,8734.430116,-4885.359217,-78907.836294
12036.154606,10510.924376,-7105.977043,-76762.768900
12036.157141,-3849.070898,-6661.853478,-77069.207099
12036.159677,7550.100608,-11991.336260,-79214.274493
12036.162212,2960.823768,-13915.871710,-79214.274493
12036.164747,-1184.329507,-6661.853478,-75996.673402
12036.167283,7254.018232,2960.823768,-78754.617194
12036.169818,6365.771101,296.082377,-77682.083497
12036.172354,-2368.659014,-296.082377,-75843.454302
12036.174889,0.000000,-444.123565,-78601.398095
12036.177424,5625.565159,-7550.100608,-78141.740796
12036.179960,-3849.070898,-7105.977043,-78754.617194
12036.182495,6365.771101,-4293.194464,-78294.959896
12036.185031,7254.018232,-12731.542202,-78294.959896
12036.187566,3701.029710,-5477.523971,-75690.235202
12036.190101,13175.665768,-7994.224174,-79214.274493
12036.192637,11843.295072,-8882.471304,-79367.493593
12036.195172,-592.164754,-7105.977043,-79061.055394
12036.197707,-7254.018232,1924.535449,-76762.768900
12036.200243,1924.535449,-444.123565,-78754.617194
12036.202778,-12731.542202,7994.224174,-77988.521696
12036.205314,-9326.594869,12139.377449,-77375.645298
12036.207849,4589.276840,10362.883188,-78907.836294
12036.210384,2812.782580,6957.935855,-75690.235202
12036.212920,-4737.318029,4737.318029,-76915.987999
12036.215455,-888.247130,-7254.018232,-77988.521696
12036.217991,-3404.947333,-1480.411884,-77528.864398
12036.220526,-8438.347739,-3701.029710,-78907.836294
12036.223061,2368.659014,6217.729913,-76915.987999
12036.225597,2368.659014,1628.453072,-77528.864398
12036.228132,-6365.771101,6217.729913,-75383.797003
12036.230667,-4441.235652,5773.606348,-79061.055394
12036.233203,-7550.100608,4737.318029,-76456.330700
12036.235738,-14508.036463,4737.318029,-75996.673402
12036.238280,-5773.606348,1628.453072,-79367.493593
12036.240821,4441.235652,1924.535449,-76915.987999
12036.243362,-7698.141797,8438.347739,-75996.673402
12036.245904,-2516.700203,1036.288319,-78601.398095
12036.248445,17024.736666,-8734.430116,-80899.684589
12036.250987,1628.453072,-6661.853478,-77222.426198
12036.253528,2960.823768,-8882.471304,-77682.083497
12036.256070,5181.441594,-15988.448347,-79827.150892
12036.258611,2072.576638,-10362.883188,-77069.207099
12036.261152,2072.576638,1332.370696,-74311.263306
12036.263694,8142.265362,-592.164754,-79827.150892
12036.266235,8142.265362,888.247130,-77988.521696
12036.268777,-4589.276840,-4441.235652,-77835.302597
12036.271318,3108.864956,-1924.535449,-76149.892501
12036.273859,3108.864956,-3256.906145,-75996.673402
12036.276401,-3997.112087,-9030.512492,-79520.712692
12036.278942,9770.718434,-5181.441594,-78448.178995
12036.281484,9474.636058,-12287.418637,-76303.111601
12036.284025,7698.141797,-6217.729913,-75077.358804
12036.286566,9918.759623,-8586.388927,-79367.493593
12036.289108,8882.471304,-6957.935855,-78907.836294
12036.291649,-5625.565159,-2960.823768,-77375.645298
12036.294191,-2368.659014,1332.370696,-78141.740796
12036.296732,-7698.141797,888.247130,-79061.055394
12036.299274,-10658.965565,12583.501014,-76303.111601
12036.301815,-7105.977043,15840.407159,-78294.959896
12036.304356,6661.853478,5625.565159,-77375.645298
12036.306898,-1924.535449,2516.700203,-77528.864398
12036.309439,-10658.965565,-4589.276840,-77222.426198
12036.311981,1480.411884,0.000000,-78448.178995
12036.314522,-9030.512492,-2812.782580,-76915.987999
12036.317063,-2812.782580,296.082377,-78601.398095
12036.319605,2664.741391,4441.235652,-80133.589091
12036.322146,-740.205942,3701.029710,-75077.358804
12036.324688,-8882.471304,7846.182985,-77528.864398
12036.327229,-2516.700203,5181.441594,-78448.178995
12036.329770,-8142.265362,592.164754,-77835.302597
12036.332312,-11547.212695,2220.617826,-76456.330700
12036.334853,1184.329507,2516.700203,-79673.931792
12036.337395,-592.164754,2664.741391,-77528.864398
12036.339941,-4589.276840,4145.153275,-75230.577904
12036.342488,7846.182985,-5773.606348,-78448.178995
12036.345035,9622.677246,-7698.141797,-77375.645298
12036.347582,-888.247130,-12139.377449,-77375.645298
12036.350129,4145.153275,-9030.512492,-77682.083497
12036.352676,10214.842000,-14656.077652,-79827.150892
12036.355222,3552.988522,-4145.153275,-75996.673402
12036.357769,1776.494261,4441.235652,-78448.178995
12036.360316,9622.677246,888.247130,-79980.369991
12036.362863,1776.494261,-3552.988522,-77988.521696
12036.365410,-3552.988522,-4145.153275,-77528.864398
12036.367956,3997.112087,-1628.453072,-77222.426198
12036.370503,2960.823768,-7698.141797,-77988.521696
12036.373050,-3552.988522,-6809.894666,-78601.398095
12036.375597,10214.842000,-5477.523971,-77835.302597
12036.378144,12139.377449,-8586.388927,-77069.207099
12036.380690,1776.494261,-7846.182985,-76303.111601
12036.383237,11399.171507,-6809.894666,-80899.684589
12036.385784,-2812.782580,-5181.441594,-77375.645298
12036.388331,-3701.029710,-1480.411884,-75996.673402
12036.390878,-10510.924376,5625.565159,-78601.398095
12036.393424,-1924.535449,9622.677246,-78448.178995
12036.395971,-5625.565159,14359.995275,-78448.178995
12036.398518,-3108.864956,7994.224174,-74464.482406
12036.401065,2220.617826,1776.494261,-77835.302597
12036.403612,-3108.864956,-5921.647536,-78141.740796
12036.406159,-7994.224174,-2960.823768,-77222.426198
12036.408705,-5033.400406,-3108.864956,-78754.617194
12036.411252,3849.070898,5181.441594,-75230.577904
12036.413799,-4885.359217,2072.576638,-77835.302597
12036.416346,296.082377,4293.194464,-78141.740796
12036.418893,0.000000,7105.977043,-76303.111601
12036.421439,-14211.954086,4441.235652,-77988.521696
12036.423986,-13915.871710,4441.235652,-78448.178995
12036.426533,444.123565,-1036.288319,-79367.493593
12036.429080,-6217.729913,2664.741391,-75996.673402
12036.431627,-2220.617826,7846.182985,-78601.398095
12036.434173,5181.441594,-1184.329507,-77835.302597
12036.436720,8734.430116,-5181.441594,-77835.302597
12036.439267,3108.864956,-6809.894666,-79214.274493
12036.441818,8290.306550,-11991.336260,-77988.521696
12036.444369,3701.029710,-14211.954086,-78601.398095
12036.446920,-3256.906145,-9474.636058,-77528.864398
12036.449470,7698.141797,-592.164754,-79980.369991
12036.452021,3404.947333,1036.288319,-76915.987999
12036.454572,-3404.947333,-296.082377,-77988.521696
12036.457123,5477.523971,-3404.947333,-78294.959896
12036.459674,-2220.617826,-444.123565,-75690.235202
12036.462225,-2960.823768,-5625.565159,-78294.959896
12036.464776,3256.906145,-7402.059420,-80133.589091
12036.467326,10362.883188,-9918.759623,-77988.521696
12036.469877,3997.112087,-9622.677246,-76609.549800
12036.472428,12287.418637,-6957.935855,-77069.207099
12036.474979,10807.006753,-9622.677246,-78448.178995
12036.477530,-3997.112087,-6661.853478,-77222.426198
12036.480081,888.247130,-1036.288319,-78448.178995
12036.482631,-5625.565159,-1924.535449,-77528.864398
12036.485182,-14952.160028,10362.883188,-76303.111601
12036.487733,-10066.800811,14952.160028,-79061.055394
12036.490284,8142.265362,7994.224174,-77988.521696
12036.492835,-1184.329507,7994.224174,-75843.454302
12036.495386,-6069.688724,592.164754,-77222.426198
12036.497937,-296.082377,-3552.988522,-79061.055394
12036.500487,-5181.441594,-4441.235652,-77375.645298
12036.503038,-3849.070898,2664.741391,-78141.740796
12036.505589,4589.276840,592.164754,-78601.398095
12036.508140,3701.029710,5477.523971,-76762.768900
12036.510691,-10214.842000,6661.853478,-76762.768900
12036.513242,-4145.153275,7402.059420,-78448.178995
12036.515793,-11251.130318,4293.194464,-78294.959896
12036.518343,-14359.995275,2516.700203,-76609.549800
12036.520894,1480.411884,3256.906145,-79367.493593
12036.523445,-3701.029710,2220.617826,-76762.768900
12036.525996,-6365.771101,5773.606348,-76915.987999
12036.528547,8882.471304,-2812.782580,-76915.987999
12036.531098,9474.636058,-8142.265362,-77375.645298
12036.533648,4589.276840,-6809.894666,-75537.016103
12036.536199,-3849.070898,-14656.077652,-80133.589091
12036.538750,10066.800811,-13471.748144,-80286.808190
12036.541301,-888.247130,-5625.565159,-76609.549800
12036.543855,3997.112087,1480.411884,-77988.521696
12036.546408,10955.047942,-296.082377,-80133.589091
12036.548962,-444.123565,-4145.153275,-78141.740796
12036.551516,1036.288319,-296.082377,-77069.207099
12036.554070,6069.688724,-7254.018232,-77835.302597
12036.556623,4441.235652,-5033.400406,-78141.740796
12036.559177,296.082377,-6957.935855,-77988.521696
12036.561731,11251.130318,-11103.089130,-77835.302597
12036.564285,15988.448347,-6661.853478,-74770.920605
12036.566838,3404.947333,-8734.430116,-76609.549800
12036.569392,7550.100608,-6365.771101,-78601.398095
12036.571946,-1628.453072,-6809.894666,-76762.768900
12036.574499,-5921.647536,1776.494261,-75690.235202
12036.577053,-7550.100608,5329.482782,-78601.398095
12036.579607,-6217.729913,10066.800811,-77988.521696
12036.582161,-4737.318029,12435.459826,-77528.864398
12036.584714,1480.411884,10658.965565,-77069.207099
12036.587268,2812.782580,-1332.370696,-78141.740796
12036.589822,-10362.883188,-1924.535449,-76762.768900
12036.592376,-3552.988522,-2664.741391,-79214.274493
12036.594929,-2664.741391,-5625.565159,-78601.398095
12036.597483,-3849.070898,3256.906145,-77069.207099
