#time,accel_x,accel_y,accel_z
8783.314020,-1184.329507,-1628.453072,-75230.577904
8783.316554,-5181.441594,-888.247130,-79367.493593
8783.319088,11399.171507,-1628.453072,-77682.083497
8783.321622,1628.453072,-3256.906145,-78754.617194
8783.324155,-3108.864956,-2664.741391,-75383.797003
8783.326689,4589.276840,-5033.400406,-78754.617194
8783.329223,7846.182985,-5477.523971,-76303.111601
8783.331757,296.082377,-4885.359217,-75996.673402
8783.334291,6513.812290,-1924.535449,-79214.274493
8783.336824,4589.276840,-1332.370696,-77682.083497
8783.339358,-296.082377,-2812.782580,-76762.768900
8783.341892,-3701.029710,1184.329507,-76149.892501
8783.344426,6069.688724,-3997.112087,-79827.150892
8783.346959,2812.782580,-2368.659014,-75996.673402
8783.349493,-4293.194464,-2368.659014,-77069.207099
8783.352027,-1332.370696,-4589.276840,-78294.959896
8783.354561,-148.041188,1480.411884,-76149.892501
8783.357095,-9030.512492,296.082377,-75383.797003
8783.359628,-5329.482782,6365.771101,-77682.083497
8783.362162,2960.823768,3404.947333,-79827.150892
8783.364696,-2072.576638,6217.729913,-75537.016103
8783.367230,-7846.182985,2516.700203,-77835.302597
8783.369764,888.247130,1480.411884,-77375.645298
8783.372297,4293.194464,-1776.494261,-76303.111601
8783.374831,-10362.883188,-3108.864956,-78294.959896
8783.377407,4737.318029,-2072.576638,-78294.959896
8783.379983,-740.205942,-2664.741391,-77835.302597
8783.382559,-3552.988522,2812.782580,-75537.016103
8783.385136,-5773.606348,3997.112087,-77682.083497
8783.387712,7254.018232,-5181.441594,-79061.055394
8783.390288,1036.288319,444.123565,-75996.673402
8783.392864,-3849.070898,-888.247130,-78601.398095
8783.395440,1776.494261,3701.029710,-78141.740796
8783.398016,-2072.576638,148.041188,-76915.987999
8783.400592,-6661.853478,1480.411884,-77069.207099
8783.403168,-1184.329507,1628.453072,-78448.178995
8783.405744,-2368.659014,592.164754,-76456.330700
8783.408320,-3404.947333,3552.988522,-74464.482406
8783.410896,-8142.265362,-296.082377,-80133.589091
8783.413473,6365.771101,4145.153275,-77835.302597
8783.416049,-296.082377,-2072.576638,-76609.549800
8783.418625,-5329.482782,1332.370696,-76915.987999
8783.421201,1480.411884,-296.082377,-80286.808190
8783.423777,-6365.771101,1184.329507,-77069.207099
8783.426353,-4589.276840,3552.988522,-77069.207099
8783.428929,-1036.288319,-148.041188,-79367.493593
8783.431505,-740.205942,1924.535449,-77835.302597
8783.434081,-2960.823768,-4293.194464,-76303.111601
8783.436657,-2516.700203,-6069.688724,-77682.083497
8783.439233,10214.842000,-740.205942,-79061.055394
8783.441810,3997.112087,-2812.782580,-77528.864398
8783.444386,1628.453072,-2664.741391,-79827.150892
8783.446962,5625.565159,-7698.141797,-77835.302597
8783.449538,-5773.606348,-1332.370696,-73698.386908
8783.452114,-2812.782580,-1924.535449,-75383.797003
8783.454690,2516.700203,-1036.288319,-79214.274493
8783.457266,13471.748144,-2516.700203,-78448.178995
8783.459842,-296.082377,-1184.329507,-74924.139704
8783.462418,740.205942,-3404.947333,-78754.617194
8783.464994,1184.329507,-5181.441594,-77682.083497
8783.467570,0.000000,-3849.070898,-75383.797003
8783.470147,-5773.606348,-2960.823768,-78907.836294
8783.472723,9178.553681,-4293.194464,-79061.055394
8783.475299,3108.864956,-4737.318029,-77069.207099
8783.477875,-4885.359217,-5773.606348,-75077.358804
8783.480344,1036.288319,2072.576638,-77835.302597
8783.482814,2368.659014,-2072.576638,-77528.864398
8783.485283,-592.164754,-3552.988522,-77375.645298
8783.487752,-3256.906145,-740.205942,-78141.740796
8783.490222,6365.771101,-1332.370696,-75843.454302
8783.492691,592.164754,-3108.864956,-76762.768900
8783.495160,-9030.512492,-3849.070898,-78141.740796
8783.497630,7105.977043,-6217.729913,-78601.398095
8783.500099,6957.935855,-4885.359217,-77835.302597
8783.502568,296.082377,-4145.153275,-74004.825107
8783.505038,5921.647536,-3108.864956,-79520.712692
8783.507507,7846.182985,-3997.112087,-77835.302597
8783.509976,-5181.441594,-4441.235652,-75690.235202
8783.512446,1924.535449,1480.411884,-77222.426198
8783.514915,7846.182985,-5329.482782,-77988.521696
8783.517384,1184.329507,-5033.400406,-75230.577904
8783.519854,-4293.194464,-3256.906145,-76609.549800
8783.522323,888.247130,-4737.318029,-79214.274493
8783.524792,4441.235652,-2220.617826,-75230.577904
8783.527262,-2664.741391,-3701.029710,-76456.330700
8783.529731,5033.400406,3108.864956,-79061.055394
8783.532200,6365.771101,-3404.947333,-79061.055394
8783.534670,-10807.006753,4293.194464,-74464.482406
8783.537139,-13471.748144,3256.906145,-77375.645298
8783.539608,-444.123565,-1628.453072,-79673.931792
8783.542078,1332.370696,3552.988522,-77835.302597
8783.544547,-2220.617826,2664.741391,-78448.178995
8783.547016,3849.070898,0.000000,-76456.330700
8783.549486,3849.070898,-1776.494261,-76915.987999
8783.551955,-11251.130318,-3701.029710,-75383.797003
8783.554424,-3849.070898,-888.247130,-78754.617194
8783.556894,-1036.288319,1184.329507,-78141.740796
8783.559363,-4441.235652,3552.988522,-75843.454302
8783.561832,-5921.647536,5033.400406,-77835.302597
8783.564302,2072.576638,2072.576638,-77375.645298
8783.566771,1628.453072,1332.370696,-75690.235202
8783.569240,-8438.347739,-2220.617826,-77222.426198
8783.571710,4885.359217,-444.123565,-78907.836294
8783.574179,-1924.535449,-2516.700203,-75843.454302
8783.576648,-3552.988522,-3701.029710,-76456.330700
8783.579174,-1036.288319,2664.741391,-79367.493593
8783.581699,3404.947333,-3404.947333,-75843.454302
8783.584225,5033.400406,-296.082377,-76609.549800
8783.586751,-11251.130318,2664.741391,-78141.740796
8783.589277,6661.853478,-888.247130,-78907.836294
8783.591803,-2516.700203,3108.864956,-76303.111601
8783.594328,-7105.977043,2072.576638,-76149.892501
8783.596854,-4145.153275,2960.823768,-78907.836294
8783.599380,-2516.700203,4885.359217,-76303.111601
8783.601906,-10955.047942,1628.453072,-77528.864398
8783.604432,3256.906145,6217.729913,-77988.521696
8783.606957,7698.141797,0.000000,-78907.836294
8783.609483,888.247130,-1480.411884,-75690.235202
8783.612009,-10510.924376,296.082377,-77375.645298
8783.614535,-1628.453072,-6365.771101,-78141.740796
8783.617061,-1184.329507,4589.276840,-75383.797003
8783.619586,-3404.947333,-1480.411884,-79827.150892
8783.622112,-1184.329507,8586.388927,-78754.617194
8783.624638,-740.205942,-2960.823768,-77069.207099
8783.627164,-4145.153275,-1036.288319,-74004.825107
8783.629690,2812.782580,2368.659014,-76456.330700
8783.632215,9326.594869,-3701.029710,-79520.712692
8783.634741,5329.482782,-5625.565159,-77528.864398
8783.637267,-2516.700203,-6217.729913,-79980.369991
8783.639793,444.123565,-5181.441594,-75843.454302
8783.642319,2516.700203,-2220.617826,-75537.016103
8783.644844,-3552.988522,-2664.741391,-77682.083497
8783.647370,9326.594869,-3108.864956,-80899.684589
8783.649896,5033.400406,1036.288319,-75843.454302
8783.652422,-2072.576638,-2960.823768,-74924.139704
8783.654948,-2812.782580,-3552.988522,-77682.083497
8783.657474,4885.359217,-7254.018232,-78448.178995
8783.659999,3997.112087,-3108.864956,-76149.892501
8783.662525,-1480.411884,-3108.864956,-78907.836294
8783.665051,7698.141797,-2368.659014,-78141.740796
8783.667577,-740.205942,-3404.947333,-76149.892501
8783.670103,-6365.771101,-3108.864956,-76762.768900
8783.672628,2812.782580,2960.823768,-77375.645298
8783.675154,5033.400406,-1036.288319,-78601.398095
8783.677680,-2220.617826,-3256.906145,-77988.521696
8783.680243,-5477.523971,-2812.782580,-79214.274493
8783.682806,9178.553681,-4293.194464,-76762.768900
8783.685369,-2516.700203,-5033.400406,-76149.892501
8783.687932,1184.329507,-5477.523971,-78141.740796
8783.690495,10510.924376,-6217.729913,-78448.178995
8783.693058,7994.224174,-4293.194464,-74617.701505
8783.695621,-2368.659014,-888.247130,-78141.740796
8783.698184,2664.741391,444.123565,-78448.178995
8783.700747,4589.276840,-3256.906145,-76762.768900
8783.703310,-1332.370696,-8586.388927,-76303.111601
8783.705873,2812.782580,-1480.411884,-76609.549800
8783.708436,2960.823768,-7105.977043,-79367.493593
8783.710999,444.123565,-5033.400406,-74617.701505
8783.713562,-1776.494261,-4737.318029,-78601.398095
8783.716125,9178.553681,296.082377,-78294.959896
8783.718688,1480.411884,3108.864956,-75996.673402
8783.721251,-7994.224174,-1036.288319,-76303.111601
8783.723814,-9770.718434,4441.235652,-77988.521696
8783.726377,-5329.482782,3552.988522,-76915.987999
8783.728940,-7402.059420,1924.535449,-75383.797003
8783.731503,-592.164754,1924.535449,-78754.617194
8783.734066,3849.070898,-3552.988522,-79214.274493
8783.736629,2960.823768,296.082377,-75077.358804
8783.739192,-6069.688724,-1480.411884,-75996.673402
8783.741755,-4441.235652,-2664.741391,-78907.836294
8783.744318,3849.070898,-740.205942,-78601.398095
8783.746881,-444.123565,4293.194464,-76609.549800
8783.749444,-4293.194464,7994.224174,-76762.768900
8783.752007,1184.329507,2664.741391,-77988.521696
8783.754571,-1924.535449,2516.700203,-75996.673402
8783.757134,-10807.006753,-1332.370696,-77528.864398
8783.759697,2368.659014,-1184.329507,-78754.617194
8783.762260,1776.494261,-444.123565,-77528.864398
8783.764823,-2664.741391,-592.164754,-75230.577904
8783.767386,-5625.565159,-148.041188,-77835.302597
8783.769949,7254.018232,-148.041188,-77835.302597
8783.772512,1924.535449,1184.329507,-74770.920605
8783.775075,-8290.306550,-1776.494261,-79367.493593
8783.777638,6217.729913,592.164754,-79214.274493
8783.780201,-4737.318029,1776.494261,-78141.740796
8783.782689,-10510.924376,5625.565159,-76149.892501
8783.785177,-4737.318029,1036.288319,-77988.521696
8783.787665,-4145.153275,3997.112087,-80593.246390
8783.790154,-3552.988522,3256.906145,-75843.454302
8783.792642,-3701.029710,1628.453072,-79214.274493
8783.795130,9918.759623,2072.576638,-78754.617194
8783.797619,-4441.235652,-3849.070898,-76762.768900
8783.800107,-11399.171507,-1184.329507,-75843.454302
8783.802595,2072.576638,-4737.318029,-78754.617194
8783.805083,888.247130,-296.082377,-76149.892501
8783.807572,-8882.471304,9326.594869,-79980.369991
8783.810060,1776.494261,-1480.411884,-76915.987999
8783.812548,8882.471304,-2220.617826,-76609.549800
8783.815036,-1628.453072,-1776.494261,-75843.454302
8783.817525,-1924.535449,-444.123565,-77835.302597
8783.820013,13915.871710,-6661.853478,-80899.684589
8783.822501,444.123565,-9474.636058,-75690.235202
8783.824989,-2960.823768,-2072.576638,-77069.207099
8783.827478,2960.823768,-6069.688724,-77682.083497
8783.829966,3849.070898,-5477.523971,-74464.482406
8783.832454,296.082377,-2220.617826,-79367.493593
8783.834942,1776.494261,-592.164754,-79367.493593
8783.837431,10066.800811,-888.247130,-77528.864398
8783.839919,-5921.647536,-5921.647536,-76609.549800
8783.842407,-1924.535449,-2516.700203,-77682.083497
8783.844895,4885.359217,-6217.729913,-77222.426198
8783.847384,5477.523971,-4737.318029,-75537.016103
8783.849872,1628.453072,-3701.029710,-78448.178995
8783.852360,2220.617826,-1332.370696,-78141.740796
8783.854848,-888.247130,-3256.906145,-77375.645298
8783.857337,-2516.700203,444.123565,-77222.426198
8783.859825,-3552.988522,-740.205942,-77528.864398
8783.862313,11399.171507,-3108.864956,-77988.521696
8783.864801,-2812.782580,-6957.935855,-76762.768900
8783.867290,-592.164754,0.000000,-77682.083497
8783.869778,5921.647536,-8142.265362,-79367.493593
8783.872266,3997.112087,-5773.606348,-73238.729609
8783.874755,3997.112087,-5773.606348,-80286.808190
8783.877243,11843.295072,1184.329507,-77069.207099
8783.879731,6661.853478,-3404.947333,-77222.426198
8783.882264,-5625.565159,-5033.400406,-77375.645298
8783.884798,4293.194464,-3997.112087,-78448.178995
8783.887331,3552.988522,-7402.059420,-78141.740796
8783.889865,-1924.535449,-2368.659014,-74924.139704
8783.892398,3108.864956,-7402.059420,-78754.617194
8783.894931,8438.347739,-3404.947333,-77222.426198
8783.897465,-3108.864956,-1036.288319,-76609.549800
8783.899998,1036.288319,1332.370696,-79980.369991
8783.902531,-2664.741391,6957.935855,-77988.521696
8783.905065,-10066.800811,2072.576638,-76609.549800
8783.907598,-10658.965565,4441.235652,-75383.797003
8783.910131,2072.576638,1776.494261,-79673.931792
8783.912665,1776.494261,-296.082377,-77528.864398
8783.915198,-3108.864956,-1776.494261,-75843.454302
8783.917732,-2812.782580,-1924.535449,-78141.740796
8783.920265,5773.606348,-3997.112087,-77069.207099
8783.922798,-4737.318029,-1628.453072,-76762.768900
8783.925332,-6217.729913,3108.864956,-76762.768900
8783.927865,740.205942,5329.482782,-79061.055394
8783.930398,1776.494261,5625.565159,-75996.673402
8783.932932,-9178.553681,5477.523971,-75077.358804
8783.935465,-2812.782580,1332.370696,-78294.959896
8783.937999,1924.535449,-3552.988522,-78294.959896
8783.940532,-5921.647536,-4589.276840,-75843.454302
8783.943065,444.123565,888.247130,-77682.083497
8783.945599,-444.123565,-1480.411884,-78601.398095
8783.948132,6365.771101,-1332.370696,-75690.235202
8783.950665,-8882.471304,-444.123565,-75230.577904
8783.953199,3849.070898,2960.823768,-77222.426198
8783.955732,148.041188,1628.453072,-77682.083497
8783.958266,-6069.688724,-148.041188,-76303.111601
8783.960799,-2812.782580,2664.741391,-79061.055394
8783.963332,-4293.194464,1184.329507,-76762.768900
8783.965866,-12731.542202,3849.070898,-76762.768900
8783.968399,-6661.853478,1924.535449,-78448.178995
8783.970932,3701.029710,2072.576638,-77375.645298
8783.973466,3997.112087,-888.247130,-77375.645298
8783.975999,-8882.471304,4145.153275,-76456.330700
8783.978532,-1332.370696,-4885.359217,-78448.178995
8783.981066,-3256.906145,-2220.617826,-75843.454302
8783.983545,-5625.565159,-2368.659014,-76609.549800
8783.986024,-1924.535449,6513.812290,-78448.178995
8783.988503,1332.370696,-1036.288319,-78754.617194
8783.990983,2516.700203,-1036.288319,-74464.482406
8783.993462,-592.164754,3404.947333,-76609.549800
8783.995941,6365.771101,-6809.894666,-78907.836294
8783.998420,8142.265362,-2072.576638,-75996.673402
8784.000899,-4145.153275,-9474.636058,-78754.617194
8784.003379,1332.370696,-5625.565159,-77835.302597
8784.005858,3997.112087,-4885.359217,-77375.645298
8784.008337,-1480.411884,-2960.823768,-76149.892501
8784.010816,9030.512492,-3404.947333,-79520.712692
8784.013295,7846.182985,-2664.741391,-78141.740796
8784.015775,0.000000,888.247130,-75537.016103
8784.018254,-6513.812290,-2960.823768,-78601.398095
8784.020733,5181.441594,-3552.988522,-78601.398095
8784.023212,296.082377,-2664.741391,-75996.673402
8784.025691,2220.617826,-1628.453072,-77835.302597
8784.028171,4145.153275,-6365.771101,-80440.027290
8784.030650,3404.947333,-2812.782580,-76303.111601
8784.033129,-5477.523971,-1184.329507,-77528.864398
8784.035608,-1332.370696,-2664.741391,-79367.493593
8784.038087,8734.430116,2072.576638,-76456.330700
8784.040567,-888.247130,-7402.059420,-76609.549800
8784.043046,-7105.977043,888.247130,-77069.207099
8784.045525,8734.430116,-9770.718434,-78754.617194
8784.048004,2072.576638,-3108.864956,-77682.083497
8784.050483,4589.276840,-4441.235652,-77682.083497
8784.052963,8142.265362,-3997.112087,-78907.836294
8784.055442,10510.924376,-1924.535449,-74311.263306
8784.057921,-2960.823768,-5033.400406,-76915.987999
8784.060400,-3701.029710,-3849.070898,-78141.740796
8784.062879,6513.812290,-3997.112087,-79061.055394
8784.065359,296.082377,-5773.606348,-76303.111601
8784.067838,2220.617826,-2516.700203,-77835.302597
8784.070317,10955.047942,-7402.059420,-77682.083497
8784.072796,2220.617826,2072.576638,-75537.016103
8784.075275,-2960.823768,-2220.617826,-79214.274493
8784.077755,-5921.647536,4737.318029,-77222.426198
8784.080234,-1776.494261,6217.729913,-76303.111601
8784.082680,-8438.347739,2220.617826,-75996.673402
8784.085127,-740.205942,2072.576638,-78294.959896
8784.087573,5181.441594,148.041188,-79214.274493
8784.090020,-1924.535449,-3256.906145,-74617.701505
8784.092466,-4293.194464,-1036.288319,-79367.493593
8784.094913,444.123565,-5477.523971,-78601.398095
8784.097359,-888.247130,-740.205942,-76149.892501
8784.099806,-9178.553681,1776.494261,-78754.617194
8784.102252,148.041188,8142.265362,-78754.617194
8784.104699,3108.864956,4145.153275,-77988.521696
8784.107145,-8586.388927,2368.659014,-75996.673402
8784.109592,-3701.029710,2072.576638,-78141.740796
8784.112038,3552.988522,-6957.935855,-78601.398095
8784.114485,888.247130,0.000000,-75230.577904
8784.116931,-5329.482782,-1036.288319,-78294.959896
8784.119378,2960.823768,3404.947333,-77988.521696
8784.121824,6957.935855,148.041188,-77375.645298
8784.124271,-5773.606348,-2664.741391,-75383.797003
8784.126717,1332.370696,4145.153275,-77528.864398
8784.129164,-296.082377,-148.041188,-78754.617194
8784.131611,-6069.688724,3256.906145,-75843.454302
8784.134057,-9474.636058,592.164754,-79367.493593
8784.136504,-1036.288319,2368.659014,-75690.235202
8784.138950,-7846.182985,1036.288319,-75843.454302
8784.141397,-5625.565159,2812.782580,-76149.892501
8784.143843,7846.182985,1332.370696,-78601.398095
8784.146290,1480.411884,-2960.823768,-79214.274493
8784.148736,-7254.018232,-1628.453072,-74770.920605
8784.151183,-4737.318029,-1480.411884,-78141.740796
8784.153629,-444.123565,-740.205942,-77835.302597
8784.156076,0.000000,3256.906145,-76609.549800
8784.158522,-1480.411884,-2812.782580,-79061.055394
8784.161022,8290.306550,-740.205942,-79061.055394
8784.163521,4441.235652,740.205942,-75230.577904
8784.166021,-592.164754,-2812.782580,-76303.111601
8784.168521,1628.453072,-7254.018232,-79061.055394
8784.171020,5773.606348,-5181.441594,-77069.207099
8784.173520,0.000000,-5329.482782,-75843.454302
8784.176020,2072.576638,-2664.741391,-78294.959896
8784.178519,8142.265362,-7402.059420,-79980.369991
8784.181019,5921.647536,-888.247130,-75843.454302
8784.183518,-7402.059420,-1480.411884,-76609.549800
8784.186018,5329.482782,-740.205942,-78141.740796
8784.188518,-148.041188,-1776.494261,-76456.330700
8784.191017,4885.359217,-5181.441594,-75996.673402
8784.193517,-444.123565,-2812.782580,-78601.398095
8784.196017,5033.400406,-3256.906145,-77682.083497
8784.198516,-1184.329507,-4589.276840,-76149.892501
8784.201016,-3849.070898,-3849.070898,-79061.055394
8784.203515,6365.771101,-148.041188,-78141.740796
8784.206015,592.164754,-148.041188,-76915.987999
8784.208515,-3849.070898,-1332.370696,-77835.302597
8784.211014,4885.359217,-4737.318029,-77682.083497
8784.213514,8734.430116,-5033.400406,-77528.864398
8784.216014,-2812.782580,-5773.606348,-77222.426198
8784.218513,5921.647536,-1924.535449,-80133.589091
8784.221013,13175.665768,-4885.359217,-78294.959896
8784.223512,3108.864956,-5181.441594,-74924.139704
8784.226012,-2960.823768,-2664.741391,-77375.645298
8784.228512,2220.617826,-5033.400406,-78448.178995
8784.231011,3108.864956,-1776.494261,-75843.454302
8784.233511,-3849.070898,-4885.359217,-79061.055394
8784.236011,6365.771101,-2664.741391,-79673.931792
8784.238510,9770.718434,-444.123565,-77375.645298
8784.241010,-3256.906145,-5181.441594,-76303.111601
8784.243509,-6069.688724,2220.617826,-77835.302597
8784.246009,-9622.677246,3997.112087,-79061.055394
8784.248509,-8882.471304,7550.100608,-75383.797003
8784.251008,-4885.359217,1036.288319,-77682.083497
8784.253508,9178.553681,2960.823768,-76456.330700
8784.256008,-1036.288319,-444.123565,-76915.987999
8784.258507,-7105.977043,-1776.494261,-75843.454302
8784.261048,-2960.823768,-888.247130,-79367.493593
8784.263588,-2812.782580,-4145.153275,-78754.617194
8784.266129,-3701.029710,-296.082377,-74311.263306
8784.268670,592.164754,2960.823768,-77988.521696
8784.271210,4145.153275,5477.523971,-77375.645298
8784.273751,-8734.430116,2368.659014,-76609.549800
8784.276292,-3849.070898,5773.606348,-78601.398095
8784.278832,-1332.370696,-3701.029710,-78754.617194
8784.281373,1480.411884,-6513.812290,-77682.083497
8784.283913,2664.741391,-1628.453072,-77682.083497
8784.286454,-5181.441594,3108.864956,-77988.521696
8784.288995,7994.224174,-148.041188,-76609.549800
8784.291535,-10955.047942,-888.247130,-75690.235202
8784.294076,-1628.453072,4145.153275,-76303.111601
8784.296617,4441.235652,2368.659014,-79520.712692
8784.299157,-7550.100608,3701.029710,-74617.701505
8784.301698,-10214.842000,5181.441594,-76149.892501
8784.304239,-5625.565159,-740.205942,-78601.398095
8784.306779,-1036.288319,3256.906145,-74770.920605
8784.309320,-3108.864956,148.041188,-76149.892501
8784.311860,0.000000,5181.441594,-77835.302597
8784.314401,296.082377,-2960.823768,-79214.274493
8784.316942,-10658.965565,-444.123565,-74617.701505
8784.319482,1036.288319,-1776.494261,-78448.178995
8784.322023,-4145.153275,2072.576638,-76149.892501
8784.324564,5329.482782,148.041188,-76762.768900
8784.327104,-148.041188,-2516.700203,-77528.864398
8784.329645,8734.430116,444.123565,-78601.398095
8784.332185,4293.194464,-2664.741391,-77682.083497
8784.334726,-1776.494261,-4441.235652,-74004.825107
8784.337267,4293.194464,-8438.347739,-78754.617194
8784.339807,1332.370696,-5329.482782,-76149.892501
8784.342348,-740.205942,-5033.400406,-77069.207099
8784.344889,3108.864956,-4145.153275,-78448.178995
8784.347429,10807.006753,-4145.153275,-77988.521696
8784.349970,3997.112087,-3256.906145,-75843.454302
8784.352510,-6069.688724,-296.082377,-75383.797003
8784.355051,2812.782580,-4737.318029,-78907.836294
8784.357592,5625.565159,-3256.906145,-77222.426198
8784.360132,-2960.823768,-3997.112087,-76762.768900
8784.362701,3849.070898,-1776.494261,-77222.426198
8784.365270,3997.112087,-3849.070898,-77069.207099
8784.367839,-5033.400406,-4737.318029,-76456.330700
8784.370407,-3849.070898,1332.370696,-76915.987999
8784.372976,8734.430116,-2960.823768,-78754.617194
8784.375545,4737.318029,-1332.370696,-75996.673402
8784.378114,-5477.523971,-5033.400406,-76149.892501
8784.380682,3849.070898,-4737.318029,-78754.617194
8784.383251,6661.853478,-5329.482782,-77222.426198
8784.385820,1480.411884,-3552.988522,-77682.083497
8784.388389,11399.171507,-6069.688724,-79061.055394
8784.390957,8586.388927,-4885.359217,-76609.549800
8784.393526,-2516.700203,-3997.112087,-75996.673402
8784.396095,-8290.306550,-444.123565,-77528.864398
8784.398664,6217.729913,-3701.029710,-79520.712692
8784.401232,5477.523971,-3256.906145,-76456.330700
8784.403801,2368.659014,-2664.741391,-78448.178995
8784.406370,8438.347739,-1776.494261,-77988.521696
8784.408939,4885.359217,-3108.864956,-77528.864398
8784.411507,-16728.654289,2812.782580,-75843.454302
8784.414076,-6661.853478,5773.606348,-77835.302597
8784.416645,-2072.576638,4589.276840,-79214.274493
8784.419214,2072.576638,2960.823768,-74311.263306
8784.421782,-2220.617826,2072.576638,-78907.836294
8784.424351,2516.700203,444.123565,-79367.493593
8784.426920,-888.247130,-296.082377,-78448.178995
8784.429489,-13323.706956,-3552.988522,-77375.645298
8784.432057,1480.411884,-1332.370696,-77222.426198
8784.434626,296.082377,1184.329507,-77222.426198
8784.437195,-1036.288319,5477.523971,-76915.987999
8784.439764,-4885.359217,6809.894666,-78754.617194
8784.442332,-3256.906145,2072.576638,-77835.302597
8784.444901,-4293.194464,-148.041188,-77222.426198
8784.447470,-5773.606348,-1184.329507,-77682.083497
8784.450039,7254.018232,-740.205942,-77682.083497
8784.452607,2516.700203,-444.123565,-77375.645298
8784.455176,-8586.388927,1776.494261,-77375.645298
8784.457745,3997.112087,0.000000,-77682.083497
8784.460314,-4145.153275,3404.947333,-75383.797003
8784.462882,-2812.782580,5329.482782,-74924.139704
8784.465472,-9918.759623,3849.070898,-80133.589091
8784.468062,0.000000,1332.370696,-77835.302597
8784.470651,-10362.883188,0.000000,-76303.111601
8784.473241,-5625.565159,5181.441594,-75996.673402
8784.475831,4145.153275,-1184.329507,-80440.027290
8784.478420,-888.247130,1628.453072,-75843.454302
8784.481010,-4589.276840,2368.659014,-77835.302597
8784.483599,-740.205942,-3849.070898,-78294.959896
8784.486189,-1184.329507,2220.617826,-76762.768900
8784.488779,-11251.130318,-1776.494261,-78448.178995
8784.491368,-1036.288319,3849.070898,-77375.645298
8784.493958,12731.542202,-4589.276840,-78294.959896
8784.496548,1924.535449,-2368.659014,-75383.797003
8784.499137,2368.659014,-2368.659014,-78294.959896
8784.501727,7698.141797,-9326.594869,-77682.083497
8784.504317,1776.494261,-5477.523971,-74770.920605
8784.506906,-7550.100608,-6957.935855,-77835.302597
8784.509496,3849.070898,-2368.659014,-77222.426198
8784.512086,10066.800811,-5181.441594,-78601.398095
8784.514675,1480.411884,-1332.370696,-73545.167808
8784.517265,444.123565,-2812.782580,-80133.589091
8784.519854,4589.276840,-2664.741391,-77222.426198
8784.522444,-2072.576638,-3404.947333,-74770.920605
8784.525034,-7402.059420,-3256.906145,-78907.836294
8784.527623,9326.594869,-4441.235652,-78294.959896
8784.530213,8734.430116,-6809.894666,-77682.083497
8784.532803,-2960.823768,-1628.453072,-74617.701505
8784.535392,-1332.370696,-1036.288319,-78294.959896
8784.537982,5773.606348,-2960.823768,-77069.207099
8784.540572,-1628.453072,-3552.988522,-76149.892501
8784.543161,-1628.453072,-3404.947333,-78754.617194
8784.545751,11251.130318,-5625.565159,-77528.864398
8784.548341,-740.205942,-9622.677246,-76762.768900
8784.550930,3997.112087,-1332.370696,-78448.178995
8784.553520,10066.800811,-4293.194464,-79214.274493
8784.556109,11103.089130,-7550.100608,-77835.302597
8784.558699,148.041188,-1332.370696,-75383.797003
8784.561289,-7994.224174,-4885.359217,-79980.369991
8784.563878,5181.441594,-1776.494261,-78141.740796
8784.566468,7105.977043,-4441.235652,-76303.111601
8784.569007,-888.247130,-592.164754,-78448.178995
8784.571548,10510.924376,-2220.617826,-78294.959896
8784.574089,444.123565,-4293.194464,-76609.549800
8784.576630,-14508.036463,6365.771101,-75537.016103
8784.579171,-14359.995275,5477.523971,-78754.617194
8784.581711,1628.453072,3552.988522,-77988.521696
8784.584252,740.205942,3404.947333,-76149.892501
8784.586793,-740.205942,3552.988522,-77375.645298
8784.589334,3552.988522,-1480.411884,-80593.246390
8784.591875,-5625.565159,-2960.823768,-76915.987999
8784.594415,-10362.883188,148.041188,-76762.768900
8784.596956,444.123565,-4589.276840,-78601.398095
8784.599497,2812.782580,5477.523971,-75843.454302
8784.602038,1776.494261,4293.194464,-77222.426198
8784.604579,-9770.718434,4441.235652,-78601.398095
8784.607119,3108.864956,2960.823768,-77835.302597
8784.609660,-2960.823768,-2368.659014,-74924.139704
8784.612201,-6069.688724,-1776.494261,-79520.712692
8784.614742,7846.182985,-1332.370696,-78294.959896
8784.617283,-1628.453072,1184.329507,-75537.016103
8784.619823,-3404.947333,-592.164754,-76762.768900
8784.622364,888.247130,2516.700203,-78754.617194
8784.624905,2812.782580,3108.864956,-75996.673402
8784.627446,-8290.306550,4589.276840,-75383.797003
8784.629987,-8586.388927,4589.276840,-79673.931792
8784.632527,740.205942,148.041188,-77222.426198
8784.635068,-6513.812290,-1480.411884,-74924.139704
8784.637609,-5329.482782,4441.235652,-77682.083497
8784.640150,5033.400406,-2368.659014,-77682.083497
8784.642691,-4441.235652,-148.041188,-75843.454302
8784.645231,-6217.729913,-1184.329507,-77375.645298
8784.647772,-6809.894666,3997.112087,-78448.178995
8784.650313,-4441.235652,4145.153275,-78754.617194
8784.652854,888.247130,-3849.070898,-75690.235202
8784.655395,3256.906145,-1036.288319,-78448.178995
8784.657935,11843.295072,-148.041188,-77528.864398
8784.660476,2664.741391,-5477.523971,-75230.577904
8784.663017,4441.235652,-8290.306550,-78907.836294
8784.665558,3404.947333,-10214.842000,-79061.055394
8784.668099,-1776.494261,-1776.494261,-75383.797003
8784.670665,1184.329507,-2664.741391,-76303.111601
8784.673231,7846.182985,-4441.235652,-79214.274493
8784.675797,8290.306550,148.041188,-76456.330700
8784.678363,-5477.523971,-6217.729913,-76609.549800
8784.680929,1776.494261,1036.288319,-76915.987999
8784.683495,3108.864956,-5477.523971,-77835.302597
8784.686061,-2368.659014,-4293.194464,-76149.892501
8784.688627,444.123565,-740.205942,-79980.369991
8784.691193,5033.400406,-5181.441594,-78294.959896
8784.693759,2960.823768,2516.700203,-74770.920605
8784.696325,-6365.771101,-7254.018232,-78448.178995
8784.698892,-2960.823768,3256.906145,-77835.302597
8784.701458,10066.800811,-6069.688724,-77682.083497
8784.704024,-3997.112087,-5033.400406,-75537.016103
8784.706590,6217.729913,-5625.565159,-78141.740796
8784.709156,9474.636058,-7550.100608,-77682.083497
8784.711722,3997.112087,-5033.400406,-75230.577904
8784.714288,1184.329507,-4589.276840,-77835.302597
8784.716854,2220.617826,-5329.482782,-77988.521696
8784.719420,3256.906145,-3552.988522,-76915.987999
8784.721986,-4589.276840,-3849.070898,-75537.016103
8784.724552,10214.842000,-2812.782580,-78754.617194
8784.727119,7254.018232,-6069.688724,-78294.959896
8784.729685,-1036.288319,-148.041188,-75077.358804
8784.732251,2072.576638,-4737.318029,-79520.712692
8784.734817,-5921.647536,3701.029710,-76149.892501
8784.737383,-7254.018232,10066.800811,-74617.701505
8784.739949,-13175.665768,2368.659014,-79061.055394
8784.742515,4145.153275,5477.523971,-78448.178995
8784.745081,4145.153275,3552.988522,-76303.111601
8784.747647,-6217.729913,3552.988522,-74924.139704
8784.750213,0.000000,-4145.153275,-80440.027290
8784.752779,-4589.276840,-6809.894666,-77222.426198
8784.755346,-5181.441594,444.123565,-75843.454302
8784.757912,-296.082377,-1184.329507,-78141.740796
8784.760478,6661.853478,3997.112087,-77988.521696
8784.763044,-1332.370696,6069.688724,-76915.987999
8784.765610,-11843.295072,3404.947333,-76303.111601
8784.768176,2072.576638,-1332.370696,-79061.055394
8784.770742,2072.576638,-1480.411884,-76762.768900
8784.773268,-7550.100608,-2812.782580,-78448.178995
8784.775795,3404.947333,-1332.370696,-78448.178995
8784.778321,1628.453072,1036.288319,-74004.825107
8784.780847,-4885.359217,1776.494261,-75996.673402
8784.783374,-11695.253884,5033.400406,-77069.207099
8784.785900,1776.494261,5773.606348,-79520.712692
8784.788426,-6957.935855,4885.359217,-77375.645298
8784.790952,-6957.935855,2516.700203,-76762.768900
8784.793479,3404.947333,-2960.823768,-77682.083497
8784.796005,-1480.411884,1628.453072,-76915.987999
8784.798531,-7994.224174,-888.247130,-77222.426198
8784.801058,-296.082377,296.082377,-77528.864398
8784.803584,3997.112087,-2072.576638,-76149.892501
8784.806110,-12879.583391,3552.988522,-76609.549800
8784.808636,-6069.688724,3997.112087,-77682.083497
8784.811163,8290.306550,-2368.659014,-78907.836294
8784.813689,7846.182985,888.247130,-75996.673402
8784.816215,148.041188,-6217.729913,-77835.302597
8784.818742,11843.295072,-9326.594869,-77682.083497
8784.821268,4737.318029,-8142.265362,-75996.673402
8784.823794,-8142.265362,-7105.977043,-76149.892501
8784.826321,4293.194464,-5477.523971,-78907.836294
8784.828847,8882.471304,-3997.112087,-79367.493593
8784.831373,3997.112087,444.123565,-75690.235202
8784.833899,1480.411884,2072.576638,-77988.521696
8784.836426,5181.441594,-3849.070898,-77222.426198
8784.838952,-296.082377,-3552.988522,-77375.645298
8784.841478,-5773.606348,-4293.194464,-77375.645298
8784.844005,7550.100608,-4441.235652,-79367.493593
8784.846531,4589.276840,-4441.235652,-76456.330700
8784.849057,-3701.029710,-888.247130,-77069.207099
8784.851584,-4885.359217,-3701.029710,-79214.274493
8784.854110,2516.700203,-2960.823768,-77222.426198
8784.856636,296.082377,-2664.741391,-74924.139704
8784.859162,-740.205942,-4885.359217,-79214.274493
8784.861689,12435.459826,-6365.771101,-78294.959896
8784.864215,5625.565159,-6661.853478,-75537.016103
8784.866741,2960.823768,-5477.523971,-77069.207099
8784.869268,7698.141797,-7550.100608,-79520.712692
8784.871794,3849.070898,-2220.617826,-76303.111601
8784.874348,-4589.276840,-3108.864956,-76456.330700
8784.876901,2812.782580,-2072.576638,-77528.864398
8784.879455,11251.130318,-5033.400406,-77988.521696
8784.882009,2812.782580,-3701.029710,-76303.111601
8784.884563,740.205942,-1036.288319,-78907.836294
8784.887116,3701.029710,-3701.029710,-79673.931792
8784.889670,-11991.336260,4589.276840,-75537.016103
8784.892224,-16136.489536,5625.565159,-78294.959896
8784.894778,-1628.453072,3849.070898,-79214.274493
8784.897331,5921.647536,3552.988522,-77375.645298
8784.899885,-740.205942,1628.453072,-74311.263306
8784.902439,296.082377,2664.741391,-77375.645298
8784.904993,148.041188,-5921.647536,-78754.617194
8784.907546,-11103.089130,-3849.070898,-75690.235202
8784.910100,-5181.441594,-2072.576638,-79061.055394
8784.912654,5773.606348,0.000000,-77069.207099
8784.915208,2960.823768,6957.935855,-75537.016103
8784.917761,-10214.842000,3997.112087,-76762.768900
8784.920315,-2664.741391,3849.070898,-77835.302597
8784.922869,-888.247130,-148.041188,-76609.549800
8784.925423,-3256.906145,-2960.823768,-75230.577904
8784.927977,-148.041188,1776.494261,-79673.931792
8784.930530,3849.070898,-4145.153275,-78601.398095
8784.933084,-6069.688724,2960.823768,-75383.797003
8784.935638,-5329.482782,1776.494261,-77835.302597
8784.938192,-740.205942,8586.388927,-76915.987999
8784.940745,-3404.947333,5181.441594,-75537.016103
8784.943299,-9918.759623,2960.823768,-77222.426198
8784.945853,2516.700203,0.000000,-80286.808190
8784.948407,-2220.617826,-148.041188,-77069.207099
8784.950960,-7846.182985,-2664.741391,-75537.016103
8784.953514,-740.205942,740.205942,-77835.302597
8784.956068,3997.112087,-5329.482782,-78448.178995
8784.958622,-9918.759623,7254.018232,-74924.139704
8784.961175,-9030.512492,1776.494261,-79367.493593
8784.963729,7846.182985,-4885.359217,-79061.055394
8784.966283,11695.253884,2220.617826,-76915.987999
8784.968837,740.205942,-6217.729913,-76609.549800
8784.971390,3552.988522,-10510.924376,-77988.521696
8784.973944,8142.265362,-11103.089130,-79827.150892
8784.976519,-5477.523971,-5329.482782,-75230.577904
8784.979093,-3108.864956,-5033.400406,-77682.083497
8784.981668,9030.512492,-3108.864956,-77988.521696
8784.984243,7846.182985,-2220.617826,-77835.302597
8784.986817,-296.082377,888.247130,-74464.482406
8784.989392,-148.041188,148.041188,-77222.426198
8784.991967,3701.029710,-5329.482782,-77835.302597
8784.994541,-5477.523971,-7994.224174,-76915.987999
8784.997116,1184.329507,-3404.947333,-78907.836294
8784.999690,7402.059420,-1036.288319,-78294.959896
8785.002265,-2516.700203,-592.164754,-76609.549800
8785.004840,-3997.112087,-1776.494261,-77528.864398
8785.007414,5773.606348,-5773.606348,-77528.864398
8785.009989,5329.482782,-740.205942,-77069.207099
8785.012564,-1480.411884,-7994.224174,-77528.864398
8785.015138,9622.677246,-7105.977043,-79214.274493
8785.017713,15100.201217,-7698.141797,-76609.549800
8785.020287,0.000000,-7105.977043,-74004.825107
8785.022862,1184.329507,-2516.700203,-78448.178995
8785.025437,2220.617826,-4885.359217,-78907.836294
8785.028011,592.164754,-1776.494261,-74617.701505
8785.030586,1332.370696,-2072.576638,-77988.521696
8785.033161,7105.977043,-3849.070898,-79061.055394
8785.035735,6809.894666,-1332.370696,-77835.302597
8785.038310,-8586.388927,-4885.359217,-76149.892501
8785.040885,-10955.047942,4737.318029,-77988.521696
8785.043459,-7698.141797,4885.359217,-76915.987999
8785.046034,-9474.636058,3997.112087,-76915.987999
8785.048608,3108.864956,4885.359217,-77222.426198
8785.051183,6069.688724,1332.370696,-77069.207099
8785.053758,-2220.617826,3404.947333,-74924.139704
8785.056332,-9918.759623,-3256.906145,-78141.740796
8785.058907,-6661.853478,-3256.906145,-77682.083497
8785.061482,2812.782580,-2664.741391,-76915.987999
8785.064056,-4293.194464,1480.411884,-76456.330700
8785.066631,2072.576638,5181.441594,-78141.740796
8785.069206,1036.288319,2072.576638,-77988.521696
8785.071780,-9474.636058,4145.153275,-75077.358804
8785.074355,-1924.535449,148.041188,-79520.712692
8785.076929,4293.194464,296.082377,-76456.330700
8785.079520,5033.400406,-888.247130,-76456.330700
8785.082110,-5921.647536,0.000000,-78141.740796
8785.084701,592.164754,2072.576638,-77682.083497
8785.087291,-3849.070898,2368.659014,-75843.454302
8785.089882,-7846.182985,6513.812290,-74617.701505
8785.092472,-3701.029710,2368.659014,-79520.712692
8785.095063,-444.123565,5033.400406,-77375.645298
8785.097653,-9770.718434,-444.123565,-77682.083497
8785.100243,-5033.400406,1184.329507,-77835.302597
8785.102834,4145.153275,-4293.194464,-78601.398095
8785.105424,592.164754,-888.247130,-75843.454302
8785.108015,-8142.265362,6069.688724,-75843.454302
8785.110605,-4441.235652,888.247130,-80286.808190
8785.113196,3849.070898,444.123565,-75537.016103
8785.115786,-2072.576638,-2812.782580,-76456.330700
8785.118377,9030.512492,1036.288319,-77835.302597
8785.120967,11547.212695,-7254.018232,-77222.426198
8785.123558,740.205942,-11103.089130,-76915.987999
8785.126148,-3552.988522,-6809.894666,-77682.083497
8785.128738,444.123565,-7698.141797,-78448.178995
8785.131329,4293.194464,-1480.411884,-76149.892501
8785.133919,-1184.329507,-1628.453072,-78448.178995
8785.136510,10658.965565,-2072.576638,-79061.055394
8785.139100,4589.276840,-1036.288319,-76915.987999
8785.141691,-3256.906145,0.000000,-74924.139704
8785.144281,148.041188,-5477.523971,-78601.398095
8785.146872,2812.782580,-10362.883188,-79827.150892
8785.149462,592.164754,-148.041188,-75230.577904
8785.152052,-2664.741391,-2220.617826,-79061.055394
8785.154643,4885.359217,-2516.700203,-78448.178995
8785.157233,-3552.988522,-3256.906145,-76149.892501
8785.159824,-5921.647536,-3552.988522,-77682.083497
8785.162414,9622.677246,-148.041188,-77528.864398
8785.165005,8142.265362,-5921.647536,-77069.207099
8785.167595,2960.823768,-6217.729913,-77682.083497
8785.170186,9326.594869,-7550.100608,-77988.521696
8785.172776,6957.935855,-4885.359217,-77222.426198
8785.175366,-2664.741391,-2220.617826,-75996.673402
8785.177957,-888.247130,-5033.400406,-78907.836294
8785.180547,11547.212695,-3997.112087,-77222.426198
8785.183148,8882.471304,-592.164754,-74770.920605
8785.185749,-2960.823768,-740.205942,-78907.836294
8785.188350,2960.823768,-4441.235652,-78448.178995
8785.190950,-10658.965565,2516.700203,-76456.330700
8785.193551,-18949.272115,5181.441594,-75996.673402
8785.196152,-3849.070898,8734.430116,-78294.959896
8785.198753,5477.523971,1480.411884,-77988.521696
8785.201353,1036.288319,3108.864956,-74770.920605
8785.203954,-5329.482782,1628.453072,-77988.521696
8785.206555,2220.617826,-888.247130,-78294.959896
8785.209155,-10066.800811,-2220.617826,-77222.426198
8785.211756,-9918.759623,-3701.029710,-78754.617194
8785.214357,6365.771101,888.247130,-78601.398095
8785.216958,3108.864956,2664.741391,-77528.864398
8785.219558,-7698.141797,4293.194464,-74158.044206
8785.222159,-4145.153275,3849.070898,-78907.836294
8785.224760,444.123565,-2664.741391,-77528.864398
8785.227361,1036.288319,592.164754,-76762.768900
8785.229961,-5921.647536,-1184.329507,-78294.959896
8785.232562,5625.565159,1184.329507,-78294.959896
8785.235163,-8734.430116,-1776.494261,-77069.207099
8785.237764,-9326.594869,6069.688724,-77375.645298
8785.240364,888.247130,5773.606348,-79520.712692
8785.242965,-5033.400406,3108.864956,-77222.426198
8785.245566,-5625.565159,2664.741391,-76303.111601
8785.248167,-4441.235652,740.205942,-79980.369991
8785.250767,1184.329507,-592.164754,-77069.207099
8785.253368,-5477.523971,-2960.823768,-75690.235202
8785.255969,-3849.070898,1776.494261,-77835.302597
8785.258569,-4589.276840,3108.864956,-79061.055394
8785.261170,-4145.153275,2072.576638,-76149.892501
8785.263771,-444.123565,-2220.617826,-77528.864398
8785.266372,10362.883188,-444.123565,-77069.207099
8785.268972,11251.130318,-4737.318029,-77069.207099
8785.271573,2072.576638,-7698.141797,-76762.768900
8785.274174,2516.700203,-10214.842000,-78141.740796
8785.276775,-740.205942,-8586.388927,-76762.768900
8785.279375,-2664.741391,-4589.276840,-75230.577904
8785.281976,3997.112087,-1480.411884,-78907.836294
8785.284577,12435.459826,-2368.659014,-77528.864398
8785.287185,5033.400406,-2220.617826,-77222.426198
8785.289793,-4293.194464,-2368.659014,-75690.235202
8785.292400,1776.494261,-3552.988522,-77835.302597
8785.295008,2220.617826,-4737.318029,-77222.426198
8785.297616,-2812.782580,-5477.523971,-77835.302597
8785.300224,1184.329507,-888.247130,-78907.836294
8785.302832,7105.977043,-888.247130,-75230.577904
8785.305439,-5329.482782,-6217.729913,-76609.549800
8785.308047,3552.988522,-888.247130,-77835.302597
8785.310655,7402.059420,-7105.977043,-78907.836294
8785.313263,11843.295072,-5329.482782,-76609.549800
8785.315871,4589.276840,-6809.894666,-78448.178995
8785.318479,6513.812290,-7698.141797,-78448.178995
8785.321086,3849.070898,-5477.523971,-76303.111601
8785.323694,-7105.977043,-2960.823768,-76456.330700
8785.326302,7846.182985,-1776.494261,-77835.302597
8785.328910,7105.977043,-5477.523971,-77528.864398
8785.331518,296.082377,-296.082377,-74617.701505
8785.334126,-1332.370696,-3404.947333,-78294.959896
8785.336733,1480.411884,-2664.741391,-77682.083497
8785.339341,-12731.542202,6069.688724,-75537.016103
8785.341949,-19245.354492,7105.977043,-78141.740796
8785.344557,148.041188,4293.194464,-79980.369991
8785.347165,3997.112087,3108.864956,-76456.330700
8785.349772,592.164754,3997.112087,-75996.673402
8785.352380,-148.041188,-2368.659014,-79214.274493
8785.354988,-2960.823768,2368.659014,-75843.454302
8785.357596,-8734.430116,-2368.659014,-75996.673402
8785.360204,-7550.100608,-1776.494261,-79061.055394
8785.362812,9030.512492,1184.329507,-79520.712692
8785.365419,-444.123565,4145.153275,-75077.358804
8785.368027,-4737.318029,4885.359217,-76609.549800
8785.370641,-4441.235652,2072.576638,-78141.740796
8785.373255,2664.741391,-3256.906145,-75537.016103
8785.375869,-4441.235652,1776.494261,-78601.398095
8785.378484,3701.029710,888.247130,-77069.207099
8785.381098,8438.347739,1776.494261,-78907.836294
8785.383712,-8438.347739,-296.082377,-76609.549800
8785.386326,-7105.977043,6809.894666,-77069.207099
8785.388940,-2368.659014,1776.494261,-76915.987999
8785.391554,-5773.606348,5921.647536,-76303.111601
8785.394168,-4737.318029,2516.700203,-78141.740796
8785.396782,-1776.494261,-444.123565,-78294.959896
8785.399396,3256.906145,-1184.329507,-77375.645298
8785.402010,-7402.059420,-2960.823768,-74770.920605
8785.404624,-9918.759623,7402.059420,-77988.521696
8785.407238,2072.576638,-2664.741391,-78907.836294
8785.409853,6809.894666,-1776.494261,-76303.111601
8785.412467,2368.659014,148.041188,-78754.617194
8785.415081,13471.748144,-2664.741391,-77528.864398
8785.417695,10214.842000,-8586.388927,-76456.330700
8785.420309,-6957.935855,-12879.583391,-74311.263306
8785.422923,-1332.370696,-7105.977043,-78141.740796
8785.425537,3256.906145,-5773.606348,-78294.959896
8785.428151,740.205942,-2072.576638,-75843.454302
8785.430765,1184.329507,296.082377,-77835.302597
8785.433379,8882.471304,-4441.235652,-76456.330700
8785.435993,-888.247130,-1924.535449,-75230.577904
8785.438607,-6661.853478,-4885.359217,-76303.111601
8785.441221,4145.153275,-2664.741391,-79214.274493
8785.443836,4885.359217,-5625.565159,-77988.521696
8785.446450,-2368.659014,888.247130,-76609.549800
8785.449064,1036.288319,-3108.864956,-77835.302597
8785.451678,3256.906145,-4885.359217,-76609.549800
8785.454292,296.082377,-2220.617826,-76762.768900
8785.456906,148.041188,-4885.359217,-78448.178995
8785.459520,15248.242405,-5033.400406,-80133.589091
8785.462134,8586.388927,-8586.388927,-77222.426198
8785.464748,-3404.947333,-3849.070898,-75690.235202
8785.467362,-888.247130,-7105.977043,-78448.178995
8785.469976,2368.659014,-148.041188,-74770.920605
8785.472590,1184.329507,-3404.947333,-76609.549800
8785.475159,1480.411884,-592.164754,-78601.398095
8785.477727,14656.077652,-740.205942,-79061.055394
8785.480295,-3256.906145,-2072.576638,-75537.016103
8785.482864,-16432.571912,2664.741391,-78448.178995
8785.485432,-9622.677246,4737.318029,-77988.521696
8785.488000,-8142.265362,7402.059420,-76456.330700
8785.490568,-2960.823768,5773.606348,-78448.178995
8785.493137,8734.430116,3997.112087,-77835.302597
8785.495705,2664.741391,740.205942,-75537.016103
8785.498273,-8734.430116,-2368.659014,-75843.454302
8785.500842,-11547.212695,-888.247130,-78907.836294
8785.503410,-3404.947333,-2368.659014,-78141.740796
8785.505978,-296.082377,-148.041188,-75690.235202
8785.508546,1184.329507,2812.782580,-78601.398095
8785.511115,7698.141797,5921.647536,-77222.426198
8785.513683,-6365.771101,444.123565,-75996.673402
8785.516251,-8438.347739,4145.153275,-76915.987999
8785.518820,3256.906145,-3404.947333,-78907.836294
8785.521388,4885.359217,-1628.453072,-78448.178995
8785.523956,-5921.647536,592.164754,-75690.235202
8785.526524,-7105.977043,1480.411884,-77988.521696
8785.529093,0.000000,3701.029710,-76303.111601
8785.531661,-12731.542202,3404.947333,-75690.235202
8785.534229,-8734.430116,6365.771101,-79061.055394
8785.536798,2368.659014,2664.741391,-79061.055394
8785.539366,-1628.453072,-296.082377,-76303.111601
8785.541934,-4737.318029,1184.329507,-78141.740796
8785.544503,-888.247130,1628.453072,-78294.959896
8785.547071,-8734.430116,1924.535449,-77682.083497
8785.549639,-5181.441594,-2072.576638,-75996.673402
8785.552207,6661.853478,-2072.576638,-78141.740796
8785.554776,13027.624579,-1628.453072,-77682.083497
8785.557344,5477.523971,-5773.606348,-77835.302597
8785.559912,5033.400406,-6809.894666,-79061.055394
8785.562481,5181.441594,-12435.459826,-78141.740796
8785.565049,-7994.224174,-6217.729913,-74158.044206
8785.567617,-3108.864956,-2664.741391,-76456.330700
8785.570185,8734.430116,-3552.988522,-79520.712692
8785.572754,10807.006753,296.082377,-76456.330700
8785.575322,-1480.411884,-3552.988522,-75077.358804
8785.577901,-592.164754,-2664.741391,-76456.330700
8785.580481,4885.359217,-6809.894666,-77069.207099
8785.583061,-5329.482782,-2664.741391,-75077.358804
8785.585642,1332.370696,-3256.906145,-80899.684589
8785.588222,5329.482782,-1036.288319,-77528.864398
8785.590802,5773.606348,-3849.070898,-76609.549800
8785.593382,-6661.853478,-4589.276840,-76609.549800
8785.595963,6365.771101,-4293.194464,-76762.768900
8785.598543,5477.523971,-3997.112087,-77682.083497
8785.601123,6365.771101,-7698.141797,-76149.892501
8785.603703,10807.006753,-6513.812290,-79214.274493
8785.606283,5477.523971,-6217.729913,-76149.892501
8785.608864,-6661.853478,-3108.864956,-75077.358804
8785.611444,2812.782580,-5329.482782,-78141.740796
8785.614024,11695.253884,-3701.029710,-78601.398095
8785.616604,7994.224174,1036.288319,-76456.330700
8785.619184,-1628.453072,-888.247130,-78448.178995
8785.621765,-1776.494261,-2368.659014,-78907.836294
8785.624345,-13175.665768,5033.400406,-74924.139704
8785.626925,-17912.983796,7105.977043,-75690.235202
8785.629505,-1036.288319,5033.400406,-79214.274493
8785.632085,7846.182985,5477.523971,-76456.330700
8785.634666,0.000000,2368.659014,-76149.892501
8785.637246,-5921.647536,-1480.411884,-77835.302597
8785.639826,-1332.370696,-2072.576638,-78294.959896
8785.642406,-10955.047942,-3552.988522,-77069.207099
8785.644986,-6513.812290,-296.082377,-77682.083497
8785.647567,7105.977043,-148.041188,-78601.398095
8785.650147,6661.853478,6365.771101,-75690.235202
8785.652727,-8734.430116,3108.864956,-77222.426198
8785.655307,-3108.864956,2664.741391,-77375.645298
8785.657887,-3849.070898,-592.164754,-75383.797003
8785.660468,1332.370696,-1480.411884,-76456.330700
8785.663048,-7254.018232,1628.453072,-78294.959896
8785.665628,7105.977043,740.205942,-77222.426198
8785.668208,-9030.512492,1480.411884,-76149.892501
8785.670788,-14063.912898,5181.441594,-77682.083497
8785.673369,-2516.700203,3552.988522,-77988.521696
8785.675949,-1924.535449,1776.494261,-76456.330700
8785.678529,-2220.617826,7105.977043,-78294.959896
8785.681118,-1036.288319,-592.164754,-78294.959896
8785.683708,-740.205942,888.247130,-77682.083497
8785.686297,-13175.665768,1332.370696,-76762.768900
8785.688886,-8438.347739,-1480.411884,-76456.330700
8785.691476,14211.954086,-3849.070898,-78601.398095
8785.694065,3108.864956,-1480.411884,-75690.235202
8785.696654,10214.842000,-5329.482782,-79214.274493
8785.699243,11843.295072,-10510.924376,-78907.836294
8785.701833,296.082377,-7994.224174,-75230.577904
8785.704422,-11251.130318,-6809.894666,-74311.263306
8785.707011,-296.082377,-2368.659014,-78601.398095
8785.709600,13027.624579,-2072.576638,-78907.836294
8785.712190,4737.318029,-3552.988522,-76149.892501
8785.714779,2368.659014,592.164754,-77835.302597
8785.717368,3404.947333,-6217.729913,-76762.768900
8785.719958,-2368.659014,-1628.453072,-74311.263306
8785.722547,-7254.018232,-4885.359217,-79367.493593
8785.725136,6809.894666,-3849.070898,-78754.617194
8785.727725,7846.182985,-2664.741391,-77682.083497
8785.730315,-7402.059420,-3701.029710,-75383.797003
8785.732904,3108.864956,-4293.194464,-76456.330700
8785.735493,2812.782580,-7105.977043,-77222.426198
8785.738083,5477.523971,-3849.070898,-74924.139704
8785.740672,10066.800811,-8586.388927,-81052.903688
8785.743261,15248.242405,-6217.729913,-77222.426198
8785.745850,-6217.729913,-6217.729913,-74924.139704
8785.748440,-3256.906145,-4589.276840,-77682.083497
8785.751029,7402.059420,-2812.782580,-78448.178995
8785.753618,7105.977043,-4885.359217,-77528.864398
8785.756208,3552.988522,3701.029710,-75537.016103
8785.758797,4589.276840,-2812.782580,-79673.931792
8785.761386,-9178.553681,3256.906145,-76149.892501
8785.763975,-21021.848753,2664.741391,-76456.330700
8785.766565,-10658.965565,7994.224174,-77069.207099
8785.769154,6661.853478,6217.729913,-78448.178995
8785.771743,740.205942,4737.318029,-75077.358804
8785.774333,-2072.576638,1480.411884,-76609.549800
8785.776922,-148.041188,-3849.070898,-78601.398095
8785.779511,-10658.965565,-3256.906145,-76456.330700
8785.782100,-10510.924376,-888.247130,-76609.549800
8785.784696,-444.123565,-444.123565,-78754.617194
8785.787293,8290.306550,1628.453072,-77528.864398
8785.789889,-5181.441594,4145.153275,-75843.454302
8785.792485,-444.123565,4145.153275,-75843.454302
8785.795081,-888.247130,-2368.659014,-77069.207099
8785.797677,-3404.947333,3552.988522,-77222.426198
8785.800273,444.123565,1036.288319,-77988.521696
8785.802869,-1480.411884,-296.082377,-79673.931792
8785.805465,-296.082377,2368.659014,-74311.263306
8785.808061,-16284.530724,3256.906145,-76456.330700
8785.810657,-4441.235652,3552.988522,-77069.207099
8785.813253,-2812.782580,3997.112087,-76762.768900
8785.815849,-296.082377,3997.112087,-75996.673402
8785.818445,444.123565,2516.700203,-78141.740796
8785.821041,-9918.759623,1924.535449,-78141.740796
8785.823637,-5625.565159,444.123565,-76609.549800
8785.826233,-9326.594869,-3404.947333,-77069.207099
8785.828829,5921.647536,-1776.494261,-78141.740796
8785.831425,16728.654289,-4737.318029,-78448.178995
8785.834021,10955.047942,-8290.306550,-74158.044206
8785.836617,4145.153275,-6365.771101,-78907.836294
8785.839214,296.082377,-11399.171507,-77069.207099
8785.841810,-7254.018232,-3108.864956,-73698.386908
8785.844406,-3256.906145,-740.205942,-77835.302597
8785.847002,8586.388927,-2516.700203,-79520.712692
8785.849598,14063.912898,-1332.370696,-76456.330700
8785.852194,-4293.194464,-5033.400406,-73851.606007
8785.854790,-296.082377,-3849.070898,-78601.398095
8785.857386,3256.906145,-3997.112087,-76609.549800
8785.859982,-3552.988522,-6365.771101,-76762.768900
8785.862578,1776.494261,2220.617826,-79214.274493
8785.865174,6809.894666,-3849.070898,-75843.454302
8785.867770,1480.411884,-6365.771101,-75690.235202
8785.870366,-5625.565159,-4441.235652,-74924.139704
8785.872962,7402.059420,-7254.018232,-79673.931792
8785.875558,9622.677246,-2812.782580,-78294.959896
8785.878154,7698.141797,-9622.677246,-78141.740796
8785.880750,6661.853478,-4589.276840,-77835.302597
8785.883346,2368.659014,-5773.606348,-75996.673402
8785.885942,-6365.771101,-3552.988522,-75383.797003
8785.888542,5625.565159,-1332.370696,-77988.521696
8785.891142,6957.935855,-2072.576638,-79827.150892
8785.893741,9918.759623,-1628.453072,-75996.673402
8785.896341,-15100.201217,4145.153275,-77069.207099
8785.898940,-11547.212695,2516.700203,-77835.302597
8785.901540,-12879.583391,6217.729913,-76456.330700
8785.904139,-3256.906145,8142.265362,-75843.454302
8785.906739,4737.318029,5625.565159,-78907.836294
8785.909339,8882.471304,3552.988522,-76915.987999
8785.911938,-4293.194464,-2664.741391,-75996.673402
8785.914538,-13323.706956,-4589.276840,-77682.083497
8785.917137,-2664.741391,-3108.864956,-78294.959896
8785.919737,-148.041188,-592.164754,-76762.768900
8785.922337,-2664.741391,5477.523971,-77528.864398
8785.924936,1776.494261,3997.112087,-78448.178995
8785.927536,-1036.288319,3256.906145,-75077.358804
8785.930135,-5921.647536,-740.205942,-77069.207099
8785.932735,-148.041188,3552.988522,-77222.426198
8785.935335,11695.253884,2516.700203,-78141.740796
8785.937934,-8586.388927,740.205942,-77528.864398
8785.940534,-8142.265362,2664.741391,-77682.083497
8785.943133,-4293.194464,-296.082377,-76609.549800
8785.945733,-7846.182985,6069.688724,-74617.701505
8785.948332,-8734.430116,4441.235652,-80286.808190
8785.950932,4441.235652,4737.318029,-79061.055394
8785.953532,4145.153275,-1332.370696,-76303.111601
8785.956131,-10807.006753,5329.482782,-75690.235202
8785.958731,-10955.047942,2960.823768,-77375.645298
8785.961330,1776.494261,-5181.441594,-76609.549800
8785.963930,1036.288319,-3404.947333,-76149.892501
8785.966530,10066.800811,-6513.812290,-80440.027290
8785.969129,20577.725188,-6217.729913,-77835.302597
8785.971729,3997.112087,-11547.212695,-75843.454302
8785.974328,-5329.482782,-5329.482782,-76456.330700
8785.976928,-2072.576638,-7550.100608,-78141.740796
8785.979527,-1184.329507,0.000000,-74924.139704
8785.982127,3108.864956,-1332.370696,-77835.302597
8785.984727,9918.759623,148.041188,-77835.302597
8785.987326,5033.400406,-3997.112087,-76915.987999
8785.989926,-4737.318029,-5477.523971,-74464.482406
8785.992528,-3701.029710,-3404.947333,-77682.083497
8785.995130,4737.318029,-3849.070898,-77682.083497
8785.997732,888.247130,-1036.288319,-77835.302597
8786.000333,-3404.947333,148.041188,-79214.274493
8786.002935,8290.306550,-6513.812290,-76609.549800
8786.005537,1924.535449,-8438.347739,-77069.207099
8786.008139,-1924.535449,-5625.565159,-75383.797003
8786.010741,14656.077652,-5773.606348,-80593.246390
8786.013343,9622.677246,-8290.306550,-78141.740796
8786.015945,1184.329507,-5181.441594,-75230.577904
8786.018547,-2220.617826,-4441.235652,-77528.864398
8786.021149,8586.388927,-6661.853478,-76762.768900
8786.023751,-2960.823768,-4293.194464,-76915.987999
8786.026353,9178.553681,2220.617826,-78448.178995
8786.028955,2516.700203,-740.205942,-79673.931792
8786.031556,-11399.171507,3552.988522,-76456.330700
8786.034158,-18801.230927,7994.224174,-75843.454302
8786.036760,-6217.729913,3552.988522,-77682.083497
8786.039362,3552.988522,8290.306550,-76303.111601
8786.041964,-2516.700203,3404.947333,-75690.235202
8786.044566,6957.935855,3256.906145,-78601.398095
8786.047168,-2072.576638,-5921.647536,-77528.864398
8786.049770,-13323.706956,-4589.276840,-75537.016103
8786.052372,-11695.253884,296.082377,-77682.083497
8786.054974,4737.318029,-888.247130,-78294.959896
8786.057576,5033.400406,5033.400406,-76609.549800
8786.060178,-7698.141797,740.205942,-77528.864398
8786.062779,-444.123565,5033.400406,-77375.645298
8786.065381,1332.370696,-1036.288319,-76609.549800
8786.067983,-7105.977043,2220.617826,-76303.111601
8786.070585,5329.482782,2960.823768,-79673.931792
8786.073187,-4737.318029,-1924.535449,-78141.740796
8786.075789,-8290.306550,2664.741391,-73391.948708
8786.078391,-15544.324782,4589.276840,-77528.864398
8786.080993,-3256.906145,3997.112087,-78141.740796
8786.083595,1776.494261,6809.894666,-78448.178995
8786.086197,-2220.617826,592.164754,-77835.302597
8786.088799,5625.565159,3108.864956,-78448.178995
8786.091401,-12287.418637,1332.370696,-76303.111601
8786.094002,-9622.677246,-2516.700203,-76609.549800
8786.096562,3552.988522,-3997.112087,-80593.246390
8786.099122,15544.324782,-4441.235652,-78141.740796
8786.101682,14359.995275,-6957.935855,-75996.673402
8786.104242,3701.029710,-10658.965565,-78448.178995
8786.106801,4145.153275,-9178.553681,-75230.577904
8786.109361,-8882.471304,-2960.823768,-75843.454302
8786.111921,-8438.347739,-2516.700203,-78907.836294
8786.114481,12879.583391,740.205942,-79520.712692
8786.117040,6957.935855,-1332.370696,-77222.426198
8786.119600,-1036.288319,-4441.235652,-74004.825107
8786.122160,-2220.617826,-5773.606348,-77375.645298
8786.124720,148.041188,-6069.688724,-77222.426198
8786.127280,-740.205942,-4737.318029,-77528.864398
8786.129839,148.041188,1628.453072,-80440.027290
8786.132399,10066.800811,-3552.988522,-76762.768900
8786.134959,-444.123565,-5033.400406,-75077.358804
8786.137519,-296.082377,-6069.688724,-76915.987999
8786.140078,6809.894666,-7254.018232,-79214.274493
8786.142638,13175.665768,-5921.647536,-77988.521696
8786.145198,1776.494261,-4293.194464,-78294.959896
8786.147758,4145.153275,-3997.112087,-77528.864398
8786.150317,4589.276840,-7550.100608,-77375.645298
8786.152877,-1628.453072,-6069.688724,-74004.825107
8786.155437,1036.288319,-1480.411884,-78907.836294
8786.157997,12583.501014,-2368.659014,-79673.931792
8786.160557,-5625.565159,1332.370696,-76762.768900
8786.163116,-15396.283594,6809.894666,-78601.398095
8786.165676,-11399.171507,9030.512492,-76456.330700
8786.168236,-1628.453072,3552.988522,-76762.768900
8786.170796,-3552.988522,6661.853478,-75996.673402
8786.173355,5921.647536,1924.535449,-80286.808190
8786.175915,5625.565159,296.082377,-76762.768900
8786.178475,-11103.089130,-6513.812290,-75383.797003
8786.181035,-9178.553681,-1776.494261,-77835.302597
8786.183595,2220.617826,-592.164754,-77528.864398
8786.186154,1480.411884,1036.288319,-75996.673402
8786.188714,-6069.688724,8142.265362,-76303.111601
8786.191274,592.164754,1036.288319,-79827.150892
8786.193834,-296.082377,2516.700203,-74158.044206
8786.196393,-7402.059420,-2664.741391,-76762.768900
8786.198963,1628.453072,5329.482782,-78141.740796
8786.201532,592.164754,-1036.288319,-79520.712692
8786.204102,-10510.924376,3256.906145,-76609.549800
8786.206671,-9474.636058,3997.112087,-76762.768900
8786.209240,-4737.318029,2368.659014,-76609.549800
8786.211810,-1036.288319,6661.853478,-76762.768900
8786.214379,-1184.329507,740.205942,-79520.712692
8786.216948,6217.729913,2664.741391,-77682.083497
8786.219518,-6365.771101,3108.864956,-77222.426198
8786.222087,-11991.336260,-740.205942,-75537.016103
8786.224656,3552.988522,-7105.977043,-78294.959896
8786.227226,6217.729913,-3997.112087,-76303.111601
8786.229795,10510.924376,-6069.688724,-76609.549800
8786.232365,14211.954086,-10955.047942,-79827.150892
8786.234934,6809.894666,-7994.224174,-77375.645298
8786.237503,-5033.400406,-5625.565159,-77222.426198
8786.240073,-7254.018232,-3997.112087,-75383.797003
8786.242642,6809.894666,888.247130,-78294.959896
8786.245211,13471.748144,-2220.617826,-78448.178995
8786.247781,3849.070898,-4145.153275,-76456.330700
8786.250350,-1036.288319,-2960.823768,-76915.987999
8786.252920,1332.370696,-6661.853478,-77222.426198
8786.255489,-3256.906145,-4589.276840,-77222.426198
8786.258058,0.000000,148.041188,-79061.055394
8786.260628,2516.700203,-3108.864956,-79367.493593
8786.263197,9030.512492,-4885.359217,-76456.330700
8786.265766,-6365.771101,-7550.100608,-74464.482406
8786.268336,8882.471304,-5033.400406,-78141.740796
8786.270905,10510.924376,-10066.800811,-78601.398095
8786.273475,2812.782580,-2812.782580,-75996.673402
8786.276044,3552.988522,-7402.059420,-78601.398095
8786.278613,7698.141797,-4589.276840,-75843.454302
8786.281183,5477.523971,-2516.700203,-75690.235202
8786.283752,-5033.400406,-1184.329507,-76915.987999
8786.286321,9178.553681,-1480.411884,-80133.589091
8786.288891,-9178.553681,5773.606348,-77069.207099
8786.291460,-17616.901420,8142.265362,-74311.263306
8786.294030,-11399.171507,6809.894666,-78294.959896
8786.296599,3404.947333,3256.906145,-75996.673402
8786.299168,-1924.535449,5181.441594,-75843.454302
8786.301746,5329.482782,1924.535449,-79367.493593
8786.304323,3108.864956,-1924.535449,-78448.178995
8786.306900,-7698.141797,-4293.194464,-76609.549800
8786.309477,-12435.459826,148.041188,-77069.207099
8786.312054,2960.823768,148.041188,-79520.712692
8786.314632,5773.606348,1628.453072,-76762.768900
8786.317209,-3552.988522,8438.347739,-75537.016103
8786.319786,-296.082377,-1332.370696,-78754.617194
8786.322363,1184.329507,1924.535449,-75996.673402
8786.324941,-8586.388927,-2368.659014,-76915.987999
8786.327518,-3552.988522,2368.659014,-78448.178995
8786.330095,444.123565,-888.247130,-78601.398095
8786.332672,-7698.141797,4293.194464,-73698.386908
8786.335250,-15396.283594,5033.400406,-78141.740796
8786.337827,-1628.453072,3701.029710,-77682.083497
8786.340404,3849.070898,6069.688724,-76456.330700
8786.342981,-1036.288319,296.082377,-77682.083497
8786.345559,-2664.741391,4441.235652,-79061.055394
8786.348136,-10362.883188,148.041188,-76149.892501
8786.350713,-3552.988522,-5921.647536,-75077.358804
8786.353290,888.247130,-5921.647536,-79673.931792
8786.355868,21169.889941,-4885.359217,-76303.111601
8786.358445,13619.789333,-9474.636058,-78141.740796
8786.361022,0.000000,-8734.430116,-78141.740796
8786.363599,-1480.411884,-8142.265362,-78448.178995
8786.366176,-5477.523971,-3552.988522,-75996.673402
8786.368754,-2516.700203,1480.411884,-77988.521696
8786.371331,9770.718434,-2072.576638,-80133.589091
8786.373908,13323.706956,-1480.411884,-76609.549800
8786.376485,2220.617826,-4737.318029,-76609.549800
8786.379063,-8586.388927,-5033.400406,-77835.302597
8786.381640,5477.523971,-3997.112087,-78448.178995
8786.384217,-148.041188,-3108.864956,-77222.426198
8786.386794,-6069.688724,-148.041188,-77988.521696
8786.389372,11399.171507,-5773.606348,-78448.178995
8786.391949,296.082377,-5477.523971,-74311.263306
8786.394526,1480.411884,-4145.153275,-77988.521696
8786.397103,6513.812290,-8142.265362,-79214.274493
8786.399681,11843.295072,-3701.029710,-78907.836294
8786.402258,-1036.288319,-8586.388927,-75537.016103
8786.404840,2220.617826,-5033.400406,-76609.549800
8786.407422,10955.047942,-7402.059420,-77069.207099
8786.410004,-3108.864956,-3256.906145,-76303.111601
8786.412586,6217.729913,2516.700203,-80286.808190
8786.415169,-6365.771101,2368.659014,-79214.274493
8786.417751,-15396.283594,7698.141797,-74617.701505
8786.420333,-14359.995275,7105.977043,-76303.111601
8786.422915,-1184.329507,4589.276840,-77988.521696
8786.425497,8882.471304,6069.688724,-76609.549800
8786.428079,-1184.329507,-2368.659014,-76915.987999
8786.430661,-2516.700203,1184.329507,-78141.740796
8786.433244,-4293.194464,-6217.729913,-77682.083497
8786.435826,-12435.459826,-3404.947333,-74770.920605
8786.438408,740.205942,592.164754,-79061.055394
8786.440990,7105.977043,740.205942,-77835.302597
8786.443572,1480.411884,9030.512492,-75843.454302
8786.446154,-9770.718434,-444.123565,-77222.426198
8786.448737,-444.123565,296.082377,-77682.083497
8786.451319,2812.782580,1480.411884,-75230.577904
8786.453901,-7254.018232,-592.164754,-76456.330700
8786.456483,1332.370696,3256.906145,-78601.398095
8786.459065,-7846.182985,148.041188,-76456.330700
8786.461647,-16136.489536,4885.359217,-74924.139704
8786.464230,-4885.359217,5625.565159,-78907.836294
8786.466812,6069.688724,1776.494261,-78294.959896
8786.469394,5181.441594,4145.153275,-76149.892501
8786.471976,-15544.324782,1480.411884,-77835.302597
8786.474558,-1924.535449,-888.247130,-77835.302597
8786.477140,296.082377,-6513.812290,-76762.768900
8786.479722,-296.082377,-4737.318029,-75996.673402
8786.482305,18505.148550,-6365.771101,-79673.931792
8786.484887,14804.118840,-10807.006753,-77528.864398
8786.487469,1628.453072,-6069.688724,-74158.044206
8786.490051,-12583.501014,-8290.306550,-79061.055394
8786.492633,740.205942,-740.205942,-79061.055394
8786.495215,5477.523971,-740.205942,-77375.645298
8786.497798,3701.029710,2812.782580,-76609.549800
8786.500380,9622.677246,-3108.864956,-78907.836294
8786.502962,3108.864956,-7550.100608,-75843.454302
8786.505544,-4885.359217,-1036.288319,-75383.797003
8786.508130,-444.123565,-7550.100608,-79367.493593
8786.510716,7846.182985,-3256.906145,-78907.836294
8786.513302,1924.535449,-3997.112087,-77528.864398
8786.515888,-1332.370696,-7254.018232,-76456.330700
8786.518474,15396.283594,-4145.153275,-76609.549800
8786.521060,3849.070898,-7846.182985,-76303.111601
8786.523646,1184.329507,-3108.864956,-79367.493593
8786.526232,9474.636058,-8290.306550,-80286.808190
8786.528818,5773.606348,-4145.153275,-75230.577904
8786.531404,592.164754,-6217.729913,-76456.330700
8786.533990,1036.288319,-3108.864956,-78294.959896
8786.536576,10362.883188,-2664.741391,-78294.959896
8786.539162,-10362.883188,3108.864956,-77222.426198
8786.541748,-16580.613101,10362.883188,-78294.959896
8786.544334,-10955.047942,9622.677246,-78294.959896
8786.546920,-6513.812290,6513.812290,-74158.044206
8786.549506,-296.082377,6069.688724,-77528.864398
8786.552092,9178.553681,296.082377,-78601.398095
8786.554678,2812.782580,-592.164754,-76456.330700
8786.557264,-12139.377449,-8586.388927,-76762.768900
8786.559850,-8586.388927,1036.288319,-77682.083497
8786.562436,4737.318029,-888.247130,-77528.864398
8786.565022,740.205942,1628.453072,-75537.016103
8786.567608,-740.205942,10955.047942,-77682.083497
8786.570194,2368.659014,-1924.535449,-77682.083497
8786.572780,-2516.700203,740.205942,-75383.797003
8786.575366,-7550.100608,-2812.782580,-78294.959896
8786.577952,10807.006753,8142.265362,-77988.521696
8786.580538,-1924.535449,-444.123565,-77222.426198
8786.583124,-16284.530724,2516.700203,-74464.482406
8786.585710,-6513.812290,5033.400406,-77375.645298
8786.588296,-3404.947333,2664.741391,-77375.645298
8786.590883,1628.453072,5033.400406,-77222.426198
8786.593472,-444.123565,1480.411884,-79520.712692
8786.596061,-5181.441594,3404.947333,-77528.864398
8786.598651,-7698.141797,-2812.782580,-75690.235202
8786.601240,-3404.947333,-7550.100608,-77375.645298
8786.603829,12731.542202,-7550.100608,-78754.617194
8786.606418,15840.407159,-7105.977043,-77375.645298
8786.609008,7846.182985,-8290.306550,-77988.521696
8786.611597,4737.318029,-8142.265362,-77682.083497
8786.614186,-5477.523971,-7846.182985,-76456.330700
8786.616776,-6365.771101,-1924.535449,-75537.016103
8786.619365,1480.411884,444.123565,-78448.178995
8786.621954,15544.324782,888.247130,-77528.864398
8786.624543,2812.782580,-1332.370696,-75690.235202
8786.627133,-4441.235652,-5773.606348,-77835.302597
8786.629722,3404.947333,-5329.482782,-77682.083497
8786.632311,-1628.453072,-5921.647536,-77222.426198
8786.634900,-148.041188,-1184.329507,-77988.521696
8786.637490,5625.565159,-3997.112087,-79673.931792
8786.640079,7254.018232,-7402.059420,-76762.768900
8786.642668,-148.041188,-4293.194464,-73238.729609
8786.645258,9918.759623,-6217.729913,-77835.302597
8786.647847,5625.565159,-5181.441594,-78601.398095
8786.650436,7254.018232,-9326.594869,-76915.987999
8786.653025,2368.659014,-2812.782580,-77069.207099
8786.655615,7105.977043,-10658.965565,-77835.302597
8786.658204,4737.318029,-4589.276840,-77375.645298
8786.660793,1332.370696,0.000000,-76303.111601
8786.663383,-17912.983796,8142.265362,-79980.369991
8786.665972,-8290.306550,10807.006753,-77375.645298
8786.668561,-13175.665768,8882.471304,-75843.454302
8786.671150,-1776.494261,4589.276840,-77835.302597
8786.673740,5773.606348,2220.617826,-79061.055394
8786.676329,3849.070898,-4293.194464,-77069.207099
8786.678918,-10066.800811,-888.247130,-75537.016103
8786.681507,-9326.594869,-4293.194464,-79827.150892
8786.684097,-4885.359217,-1332.370696,-76456.330700
8786.686686,-592.164754,888.247130,-77069.207099
8786.689275,-3552.988522,9326.594869,-77682.083497
8786.691865,6217.729913,444.123565,-78448.178995
8786.694456,-10066.800811,-148.041188,-75843.454302
8786.697047,-8438.347739,1924.535449,-75996.673402
8786.699638,3256.906145,2812.782580,-79827.150892
8786.702229,-1036.288319,1924.535449,-77222.426198
8786.704820,-15100.201217,148.041188,-76762.768900
8786.707412,-5773.606348,6513.812290,-75383.797003
8786.710003,-5773.606348,3997.112087,-75843.454302
8786.712594,-3849.070898,3108.864956,-76915.987999
8786.715185,1332.370696,3404.947333,-79367.493593
8786.717776,-3701.029710,2812.782580,-77682.083497
8786.720368,-444.123565,-1628.453072,-73851.606007
8786.722959,-3849.070898,-6661.853478,-77528.864398
8786.725550,10510.924376,-5625.565159,-77682.083497
8786.728141,15988.448347,-7994.224174,-77835.302597
8786.730732,7846.182985,-9918.759623,-77069.207099
8786.733323,5477.523971,-8734.430116,-77069.207099
8786.735915,-5477.523971,-8142.265362,-77222.426198
8786.738506,-6513.812290,592.164754,-75690.235202
8786.741097,2664.741391,-740.205942,-79673.931792
8786.743688,16876.695478,-740.205942,-77375.645298
8786.746279,7402.059420,-1628.453072,-74617.701505
8786.748871,-5329.482782,-8290.306550,-77835.302597
8786.751462,4145.153275,-2960.823768,-77375.645298
8786.754053,-1184.329507,-4589.276840,-77835.302597
8786.756644,-6513.812290,-1184.329507,-78294.959896
8786.759235,8882.471304,-5181.441594,-78754.617194
8786.761827,6217.729913,-6217.729913,-74770.920605
8786.764418,1924.535449,-4293.194464,-75537.016103
8786.767009,2664.741391,-8438.347739,-79520.712692
8786.769600,9326.594869,-2812.782580,-79520.712692
8786.772191,4441.235652,-8734.430116,-77835.302597
8786.774782,148.041188,-5625.565159,-77222.426198
8786.777374,9622.677246,-8290.306550,-77375.645298
8786.779965,1628.453072,-1184.329507,-74924.139704
8786.782556,-2220.617826,3256.906145,-77682.083497
8786.785147,-9770.718434,5329.482782,-79520.712692
8786.787738,-12435.459826,14508.036463,-75383.797003
8786.790330,-8882.471304,7402.059420,-75996.673402
8786.792921,-1480.411884,3701.029710,-77375.645298
8786.795512,14211.954086,148.041188,-77375.645298
8786.798103,-3997.112087,-2516.700203,-76915.987999
8786.800695,-7254.018232,-2960.823768,-79520.712692
8786.803286,-4441.235652,-5921.647536,-78601.398095
8786.805878,-6069.688724,2812.782580,-74770.920605
8786.808469,-1776.494261,-148.041188,-79367.493593
8786.811061,2664.741391,5625.565159,-77069.207099
8786.813652,2664.741391,1480.411884,-77222.426198
8786.816243,-6809.894666,-1036.288319,-75843.454302
8786.818835,-3404.947333,3404.947333,-78141.740796
8786.821426,5181.441594,1332.370696,-79061.055394
8786.824018,-10214.842000,-888.247130,-76762.768900
8786.826609,-8290.306550,4885.359217,-78294.959896
8786.829201,-4293.194464,2220.617826,-75843.454302
8786.831792,-5033.400406,4885.359217,-75690.235202
8786.834384,-5477.523971,4589.276840,-79214.274493
8786.836975,-2812.782580,8142.265362,-78448.178995
8786.839567,-4885.359217,740.205942,-78448.178995
8786.842158,-4145.153275,-5181.441594,-74311.263306
8786.844749,5181.441594,-8290.306550,-77988.521696
8786.847341,13619.789333,-10658.965565,-78754.617194
8786.849932,11399.171507,-8142.265362,-76609.549800
8786.852524,6661.853478,-10807.006753,-78907.836294
8786.855115,6217.729913,-6661.853478,-75690.235202
8786.857707,-10955.047942,-5477.523971,-77069.207099
8786.860298,-7402.059420,740.205942,-75843.454302
8786.862890,12879.583391,1480.411884,-79827.150892
8786.865481,10214.842000,-888.247130,-76609.549800
8786.868073,1628.453072,-6217.729913,-75537.016103
8786.870664,-296.082377,-5773.606348,-76762.768900
8786.873255,-148.041188,-6217.729913,-75996.673402
8786.875847,-5329.482782,-5181.441594,-77222.426198
8786.878438,2664.741391,-296.082377,-78754.617194
8786.881030,14804.118840,-7254.018232,-79214.274493
8786.883621,3849.070898,-5921.647536,-74770.920605
8786.886213,2368.659014,-2516.700203,-76609.549800
8786.888804,4737.318029,-6957.935855,-79214.274493
8786.891396,7994.224174,-6957.935855,-76303.111601
8786.893987,1184.329507,-9622.677246,-79367.493593
8786.896578,7550.100608,-6513.812290,-77069.207099
8786.899170,6957.935855,-1480.411884,-76149.892501
8786.901762,-3997.112087,-148.041188,-75230.577904
8786.904353,-15544.324782,11399.171507,-77835.302597
8786.906945,-12139.377449,9030.512492,-78907.836294
8786.909536,-9326.594869,11547.212695,-75690.235202
8786.912128,-3997.112087,6661.853478,-77988.521696
8786.914719,9918.759623,296.082377,-76303.111601
8786.917311,6069.688724,-1924.535449,-76149.892501
8786.919903,-9474.636058,-3552.988522,-77069.207099
8786.922494,-2072.576638,-4441.235652,-80593.246390
8786.925086,-7254.018232,-2072.576638,-76456.330700
8786.927677,1924.535449,2664.741391,-75996.673402
8786.930269,-5329.482782,5625.565159,-80593.246390
8786.932860,6069.688724,2812.782580,-78601.398095
8786.935452,-5625.565159,-1184.329507,-74770.920605
8786.938044,-7550.100608,4885.359217,-77528.864398
8786.940635,3997.112087,-296.082377,-79520.712692
8786.943227,-7698.141797,3701.029710,-76915.987999
8786.945818,-10807.006753,2368.659014,-78141.740796
8786.948410,-4589.276840,2960.823768,-75690.235202
8786.951001,444.123565,5773.606348,-75996.673402
8786.953593,-5329.482782,1924.535449,-77835.302597
8786.956185,-6957.935855,6365.771101,-77835.302597
8786.958776,-888.247130,1776.494261,-77988.521696
8786.961368,-3997.112087,-6217.729913,-74617.701505
8786.963959,2220.617826,-7254.018232,-78907.836294
8786.966551,15840.407159,-9770.718434,-77988.521696
8786.969142,13323.706956,-9178.553681,-76149.892501
8786.971734,2960.823768,-10510.924376,-79061.055394
8786.974326,-4145.153275,-5773.606348,-76915.987999
8786.976917,-2072.576638,-5921.647536,-78294.959896
8786.979509,-5921.647536,296.082377,-76303.111601
8786.982100,8438.347739,3997.112087,-79673.931792
8786.984692,12583.501014,-888.247130,-77069.207099
8786.987283,148.041188,-2516.700203,-75383.797003
8786.989875,-6661.853478,-12731.542202,-78754.617194
8786.992467,7402.059420,-2812.782580,-76149.892501
8786.995058,-3256.906145,-6365.771101,-77222.426198
8786.997650,-3108.864956,-4589.276840,-76762.768900
8787.000241,13027.624579,-4589.276840,-77835.302597
8787.002833,7550.100608,-7994.224174,-75690.235202
8787.005386,2220.617826,-3256.906145,-72779.072310
8787.007939,4293.194464,-5921.647536,-79520.712692
8787.010492,6809.894666,-7402.059420,-77988.521696
8787.013045,3701.029710,-11251.130318,-78141.740796
8787.015598,5033.400406,-5477.523971,-77528.864398
8787.018152,10066.800811,-4293.194464,-77835.302597
8787.020705,-5477.523971,2664.741391,-76149.892501
8787.023258,-20281.642811,13175.665768,-76303.111601
8787.025811,-12435.459826,12879.583391,-79367.493593
8787.028364,-5181.441594,10214.842000,-77069.207099
8787.030917,-444.123565,4885.359217,-77375.645298
8787.033470,6809.894666,-740.205942,-77222.426198
8787.036023,5033.400406,-2516.700203,-76609.549800
8787.038576,-12287.418637,-7105.977043,-75383.797003
8787.041129,-5033.400406,-1628.453072,-79827.150892
8787.043683,2812.782580,-2072.576638,-80133.589091
8787.046236,5181.441594,7550.100608,-74158.044206
8787.048789,-3849.070898,8290.306550,-77682.083497
8787.051342,296.082377,-148.041188,-78294.959896
8787.053895,-2072.576638,592.164754,-75537.016103
8787.056448,-7994.224174,888.247130,-77069.207099
8787.059001,3256.906145,2960.823768,-79367.493593
8787.061554,-7105.977043,1036.288319,-78141.740796
8787.064107,-12139.377449,3701.029710,-75690.235202
8787.066660,-8586.388927,4589.276840,-78448.178995
8787.069214,6365.771101,5181.441594,-77682.083497
8787.071767,-4441.235652,6217.729913,-77069.207099
8787.074320,-10658.965565,4885.359217,-79214.274493
8787.076873,4145.153275,-1628.453072,-77069.207099
8787.079426,7402.059420,-10807.006753,-76456.330700
8787.081979,5329.482782,-6661.853478,-76609.549800
8787.084532,15248.242405,-11547.212695,-79520.712692
8787.087085,11251.130318,-12731.542202,-78754.617194
8787.089638,-740.205942,-7105.977043,-74770.920605
8787.092192,-7698.141797,-888.247130,-76762.768900
8787.094745,2516.700203,0.000000,-79520.712692
8787.097298,7994.224174,2664.741391,-77528.864398
8787.099851,2516.700203,2368.659014,-75077.358804
8787.102404,2664.741391,-1036.288319,-76762.768900
8787.104957,2072.576638,-11843.295072,-77222.426198
8787.107517,-2960.823768,-7105.977043,-75690.235202
8787.110078,-4293.194464,-4145.153275,-78754.617194
8787.112638,13323.706956,-5921.647536,-79367.493593
8787.115198,4885.359217,-5329.482782,-77069.207099
8787.117759,2960.823768,-3701.029710,-76303.111601
8787.120319,10214.842000,-2812.782580,-79214.274493
8787.122880,6513.812290,-5921.647536,-77835.302597
8787.125440,1184.329507,-6513.812290,-76609.549800
8787.128000,10066.800811,-10658.965565,-78754.617194
8787.130561,2516.700203,-7698.141797,-77222.426198
8787.133121,1480.411884,-3849.070898,-76303.111601
8787.135681,-15396.283594,5033.400406,-78754.617194
8787.138242,-8438.347739,9178.553681,-77988.521696
8787.140802,-15544.324782,14804.118840,-75383.797003
8787.143362,-6365.771101,14211.954086,-77835.302597
8787.145923,3404.947333,3108.864956,-78294.959896
8787.148483,7846.182985,-1628.453072,-75843.454302
8787.151043,-5033.400406,-4885.359217,-77222.426198
8787.153604,-2960.823768,-2220.617826,-79673.931792
8787.156164,-6365.771101,-2812.782580,-78754.617194
8787.158725,-888.247130,0.000000,-76149.892501
8787.161285,-4441.235652,4589.276840,-79061.055394
8787.163845,8290.306550,7550.100608,-76456.330700
8787.166406,-5921.647536,-444.123565,-77222.426198
8787.168966,-4441.235652,3404.947333,-78754.617194
8787.171526,-592.164754,-1776.494261,-78601.398095
8787.174087,-3701.029710,6661.853478,-76456.330700
8787.176647,-12731.542202,-888.247130,-78754.617194
8787.179207,-5033.400406,3256.906145,-76915.987999
8787.181768,4589.276840,6069.688724,-75996.673402
8787.184328,-6661.853478,888.247130,-77222.426198
8787.186888,-10214.842000,11843.295072,-78907.836294
8787.189449,-1628.453072,-1036.288319,-78294.959896
8787.192009,888.247130,-6069.688724,-73698.386908
8787.194570,5921.647536,-5181.441594,-78754.617194
8787.197130,16136.489536,-12139.377449,-77528.864398
8787.199690,10510.924376,-14063.912898,-77528.864398
8787.202251,-2516.700203,-12879.583391,-75690.235202
8787.204811,-3849.070898,-3256.906145,-76149.892501
8787.207371,888.247130,-3108.864956,-77528.864398
8787.209937,-4145.153275,1184.329507,-76303.111601
8787.212502,12139.377449,3997.112087,-78907.836294
8787.215068,7550.100608,1184.329507,-77835.302597
8787.217633,-2368.659014,-5773.606348,-75537.016103
8787.220199,-1776.494261,-7254.018232,-78294.959896
8787.222765,1332.370696,-9622.677246,-78448.178995
8787.225330,6365.771101,-1480.411884,-76456.330700
8787.227896,-148.041188,-6217.729913,-78754.617194
8787.230461,9622.677246,-4885.359217,-77528.864398
8787.233027,10066.800811,-3256.906145,-76609.549800
8787.235592,-1332.370696,-3701.029710,-74617.701505
8787.238158,7698.141797,-4145.153275,-78754.617194
8787.240723,6217.729913,-13471.748144,-78754.617194
8787.243289,0.000000,-8438.347739,-75690.235202
8787.245854,8438.347739,-6365.771101,-78907.836294
8787.248420,-1036.288319,2072.576638,-79061.055394
8787.250985,-9178.553681,9178.553681,-76915.987999
8787.253551,-23538.548956,14063.912898,-76915.987999
8787.256117,-1924.535449,11695.253884,-77835.302597
8787.258682,-148.041188,9474.636058,-75996.673402
8787.261248,1332.370696,1036.288319,-77835.302597
8787.263813,4885.359217,-3849.070898,-79061.055394
8787.266379,-1480.411884,-7698.141797,-77222.426198
8787.268944,-15692.365970,296.082377,-76456.330700
8787.271510,-5921.647536,888.247130,-78601.398095
8787.274075,4293.194464,1480.411884,-78294.959896
8787.276641,4293.194464,6217.729913,-76149.892501
8787.279206,-7698.141797,2664.741391,-75996.673402
8787.281772,2368.659014,1924.535449,-79214.274493
8787.284337,-2960.823768,3256.906145,-77835.302597
8787.286903,-12879.583391,2812.782580,-77222.426198
8787.289469,592.164754,-1480.411884,-78601.398095
8787.292034,-5773.606348,2812.782580,-77988.521696
8787.294600,-6217.729913,4589.276840,-73851.606007
8787.297165,-3701.029710,7402.059420,-79214.274493
8787.299731,-3108.864956,6217.729913,-79520.712692
8787.302296,-8142.265362,7254.018232,-75996.673402
8787.304862,-3997.112087,-5625.565159,-76609.549800
8787.307427,12879.583391,-8586.388927,-77069.207099
8787.309993,17024.736666,-8734.430116,-76915.987999
8787.312563,4589.276840,-14656.077652,-80133.589091
8787.315133,10362.883188,-13175.665768,-77682.083497
8787.317703,444.123565,-5921.647536,-76609.549800
8787.320273,-7254.018232,0.000000,-76303.111601
8787.322843,-4293.194464,1332.370696,-79520.712692
8787.325413,14359.995275,-592.164754,-78448.178995
8787.327983,6957.935855,2516.700203,-74617.701505
8787.330553,-4737.318029,-3849.070898,-77835.302597
8787.333122,4145.153275,-10955.047942,-78294.959896
8787.335692,-2072.576638,-6069.688724,-75537.016103
8787.338262,-2960.823768,-3997.112087,-75383.797003
8787.340832,7550.100608,-2220.617826,-77375.645298
8787.343402,12139.377449,-7550.100608,-77682.083497
8787.345972,1332.370696,-6217.729913,-76149.892501
8787.348542,3849.070898,-2960.823768,-78294.959896
8787.351112,7846.182985,-9178.553681,-79061.055394
8787.353682,3404.947333,-9178.553681,-74924.139704
8787.356252,1776.494261,-9030.512492,-77988.521696
8787.358822,12879.583391,-5477.523971,-78294.959896
8787.361392,-5477.523971,-444.123565,-78448.178995
8787.363962,-23094.425390,14063.912898,-74617.701505
8787.366532,-12583.501014,13767.830521,-79214.274493
8787.369102,-6513.812290,10955.047942,-76609.549800
8787.371672,0.000000,5921.647536,-74004.825107
8787.374242,5625.565159,-1184.329507,-78601.398095
8787.376812,8290.306550,-5329.482782,-77375.645298
8787.379382,-9474.636058,-5477.523971,-77222.426198
8787.381952,-15100.201217,-296.082377,-78601.398095
8787.384522,2516.700203,-3701.029710,-79827.150892
8787.387092,6365.771101,4589.276840,-74770.920605
8787.389662,-1480.411884,8142.265362,-74924.139704
8787.392232,-592.164754,3108.864956,-78294.959896
8787.394802,-1480.411884,2072.576638,-77222.426198
8787.397371,-11251.130318,1628.453072,-77835.302597
8787.399941,-4145.153275,2812.782580,-77682.083497
8787.402511,-2072.576638,-148.041188,-76609.549800
8787.405081,-9622.677246,1036.288319,-74004.825107
8787.407651,740.205942,7994.224174,-75843.454302
8787.410221,-3404.947333,3701.029710,-79980.369991
8787.412791,-9474.636058,11547.212695,-77528.864398
8787.415365,-7105.977043,-1184.329507,-78294.959896
8787.417938,5477.523971,-5329.482782,-76456.330700
8787.420512,13767.830521,-7254.018232,-76456.330700
8787.423085,9918.759623,-14211.954086,-76915.987999
8787.425659,14359.995275,-13027.624579,-80286.808190
8787.428232,-148.041188,-14063.912898,-78141.740796
8787.430806,-8586.388927,-2072.576638,-74158.044206
8787.433380,-2812.782580,3404.947333,-79061.055394
8787.435953,5477.523971,-296.082377,-78754.617194
8787.438527,9474.636058,2812.782580,-75690.235202
8787.441100,-1332.370696,-740.205942,-77069.207099
8787.443674,-888.247130,-5477.523971,-78141.740796
8787.446247,888.247130,-8734.430116,-78141.740796
8787.448821,-4145.153275,-6217.729913,-77528.864398
8787.451394,6809.894666,-3701.029710,-76456.330700
8787.453968,13471.748144,-8586.388927,-76303.111601
8787.456541,4885.359217,-4737.318029,-75843.454302
8787.459115,2664.741391,-1924.535449,-78294.959896
8787.461689,8882.471304,-9622.677246,-79520.712692
8787.464262,8290.306550,-6365.771101,-76149.892501
8787.466836,-2960.823768,-9770.718434,-77222.426198
8787.469409,13323.706956,-7402.059420,-77682.083497
8787.471983,2072.576638,-1036.288319,-76303.111601
8787.474556,-16728.654289,6809.894666,-77375.645298
8787.477130,-18801.230927,15692.365970,-79673.931792
8787.479703,-5477.523971,9326.594869,-78601.398095
8787.482277,-444.123565,8734.430116,-72166.195912
8787.484850,296.082377,-296.082377,-79367.493593
8787.487424,10807.006753,-1628.453072,-76303.111601
8787.489997,-5921.647536,-5033.400406,-78907.836294
8787.492571,-18801.230927,-1480.411884,-79061.055394
8787.495145,-148.041188,-2368.659014,-79520.712692
8787.497718,8882.471304,0.000000,-76303.111601
8787.500292,-6069.688724,9622.677246,-73545.167808
8787.502865,-3849.070898,3997.112087,-76149.892501
8787.505439,-1628.453072,-888.247130,-79520.712692
8787.508012,-3256.906145,6069.688724,-78754.617194
8787.510586,-13027.624579,1036.288319,-77375.645298
8787.513159,-3404.947333,2664.741391,-77835.302597
8787.515733,444.123565,1332.370696,-74158.044206
8787.518309,-7698.141797,5773.606348,-74158.044206
8787.520884,-740.205942,5625.565159,-80440.027290
8787.523460,-9622.677246,6661.853478,-79827.150892
8787.526036,-1776.494261,-1924.535449,-76762.768900
8787.528612,1184.329507,-4885.359217,-76609.549800
8787.531187,18357.107362,-10362.883188,-76915.987999
8787.533763,13175.665768,-12731.542202,-76149.892501
8787.536339,3849.070898,-15840.407159,-79214.274493
8787.538915,2516.700203,-8586.388927,-78294.959896
8787.541490,-3256.906145,-740.205942,-77222.426198
8787.544066,-8882.471304,-1184.329507,-77682.083497
8787.546642,8290.306550,1924.535449,-77682.083497
8787.549218,16580.613101,-1036.288319,-77835.302597
8787.551793,2960.823768,148.041188,-74924.139704
8787.554369,-7254.018232,-5625.565159,-79061.055394
8787.556945,5625.565159,-10510.924376,-80899.684589
8787.559521,-296.082377,-3404.947333,-76149.892501
8787.562096,740.205942,-3404.947333,-76762.768900
8787.564672,10214.842000,-6513.812290,-76609.549800
8787.567248,12435.459826,-5033.400406,-76456.330700
8787.569824,-1184.329507,-6217.729913,-77222.426198
8787.572399,1184.329507,-4737.318029,-80133.589091
8787.574975,8882.471304,-8734.430116,-79214.274493
8787.577551,1332.370696,-11399.171507,-75690.235202
8787.580127,8142.265362,-3997.112087,-77222.426198
8787.582702,148.041188,-592.164754,-78294.959896
8787.585278,-16728.654289,12879.583391,-76149.892501
8787.587854,-22650.301825,17024.736666,-79061.055394
8787.590430,-3552.988522,10955.047942,-77988.521696
8787.593005,2960.823768,7254.018232,-75537.016103
8787.595581,1036.288319,-4885.359217,-75230.577904
8787.598157,-592.164754,-1332.370696,-78294.959896
8787.600733,1184.329507,-5625.565159,-79827.150892
8787.603308,-15396.283594,-1332.370696,-77222.426198
8787.605884,-3997.112087,1776.494261,-79061.055394
8787.608460,6513.812290,592.164754,-77835.302597
8787.611036,1628.453072,7402.059420,-73238.729609
8787.613611,-7105.977043,3108.864956,-78141.740796
8787.616187,2072.576638,1036.288319,-80133.589091
8787.618763,-1480.411884,5033.400406,-77988.521696
8787.621338,-14656.077652,740.205942,-76609.549800
8787.623915,-5033.400406,3552.988522,-77835.302597
8787.626493,3552.988522,1924.535449,-76609.549800
8787.629070,-5625.565159,3849.070898,-75383.797003
8787.631648,-9030.512492,8734.430116,-80286.808190
8787.634226,-7105.977043,7105.977043,-78294.959896
8787.636803,-296.082377,-3701.029710,-76609.549800
8787.639381,2516.700203,-4885.359217,-75843.454302
8787.641958,19985.560434,-14359.995275,-77682.083497
8787.644536,13767.830521,-16432.571912,-76915.987999
8787.647113,1924.535449,-16876.695478,-77528.864398
8787.649691,-3404.947333,-3108.864956,-77682.083497
8787.652268,-1036.288319,592.164754,-77988.521696
8787.654846,-3997.112087,-1628.453072,-76149.892501
8787.657423,7105.977043,1628.453072,-77835.302597
8787.660001,11547.212695,-1628.453072,-75996.673402
8787.662579,2220.617826,0.000000,-75383.797003
8787.665156,-5477.523971,-9622.677246,-77682.083497
8787.667734,444.123565,-5625.565159,-77528.864398
8787.670311,6809.894666,-5329.482782,-77375.645298
8787.672889,444.123565,-5921.647536,-75690.235202
8787.675466,12139.377449,-5477.523971,-77528.864398
8787.678044,9770.718434,-6809.894666,-76762.768900
8787.680621,2220.617826,-5625.565159,-76762.768900
8787.683199,1924.535449,-8438.347739,-79980.369991
8787.685777,6809.894666,-8734.430116,-77988.521696
8787.688354,6957.935855,-6365.771101,-76762.768900
8787.690932,-3997.112087,1924.535449,-75843.454302
8787.693509,-8142.265362,8438.347739,-79367.493593
8787.696087,-17024.736666,15692.365970,-78448.178995
8787.698664,-14952.160028,13323.706956,-77528.864398
8787.701242,1480.411884,9474.636058,-76303.111601
8787.703819,8290.306550,-1776.494261,-75843.454302
8787.706397,-2072.576638,-6809.894666,-75537.016103
8787.708975,-7994.224174,-444.123565,-80286.808190
8787.711552,-4737.318029,-4145.153275,-81206.122788
8787.714130,-2516.700203,-1776.494261,-75537.016103
8787.716707,444.123565,3404.947333,-77069.207099
8787.719285,-740.205942,6513.812290,-75690.235202
8787.721862,5329.482782,740.205942,-74924.139704
8787.724440,-12879.583391,3256.906145,-77528.864398
8787.727018,2220.617826,2664.741391,-80899.684589
8787.729596,-9770.718434,2220.617826,-78294.959896
8787.732174,-7994.224174,1628.453072,-73698.386908
8787.734752,-4145.153275,1480.411884,-76456.330700
8787.737330,6365.771101,4441.235652,-76762.768900
8787.739908,-9474.636058,7846.182985,-76915.987999
8787.742486,-15248.242405,9918.759623,-79061.055394
8787.745064,7105.977043,-6957.935855,-80899.684589
8787.747642,7550.100608,-3701.029710,-74311.263306
8787.750220,9178.553681,-11547.212695,-77835.302597
8787.752797,18209.066173,-15396.283594,-77835.302597
8787.755375,9030.512492,-14656.077652,-78294.959896
8787.757953,-8438.347739,-3997.112087,-75996.673402
8787.760531,-7846.182985,1480.411884,-78907.836294
8787.763109,8734.430116,2516.700203,-77988.521696
8787.765687,6957.935855,-2072.576638,-76303.111601
8787.768265,3256.906145,-3108.864956,-77835.302597
8787.770843,6661.853478,296.082377,-77528.864398
8787.773421,-2516.700203,-6809.894666,-77528.864398
8787.775999,-4441.235652,-4589.276840,-78601.398095
8787.778577,3256.906145,-5033.400406,-78448.178995
8787.781155,14359.995275,-3552.988522,-73698.386908
8787.783733,4441.235652,-7254.018232,-76303.111601
8787.786311,2812.782580,-5625.565159,-79980.369991
8787.788888,11843.295072,-7846.182985,-79673.931792
8787.791466,592.164754,-9326.594869,-75383.797003
8787.794044,1480.411884,-3552.988522,-77528.864398
8787.796622,11991.336260,-9770.718434,-79061.055394
8787.799200,592.164754,1480.411884,-75077.358804
8787.801778,-21910.095883,11695.253884,-76609.549800
8787.804356,-17468.860231,19245.354492,-77682.083497
8787.806934,-1628.453072,9030.512492,-77835.302597
8787.809512,-3701.029710,5033.400406,-73851.606007
8787.812090,6217.729913,-888.247130,-77528.864398
8787.814668,7550.100608,-5773.606348,-77528.864398
8787.817246,-5329.482782,-1332.370696,-77222.426198
8787.819824,-18653.189738,-3701.029710,-80593.246390
8787.822402,-444.123565,2812.782580,-77988.521696
8787.824980,8438.347739,6069.688724,-74770.920605
8787.827558,-4589.276840,2664.741391,-73545.167808
8787.830136,-3108.864956,2812.782580,-77682.083497
8787.832714,-444.123565,296.082377,-79367.493593
8787.835292,-12287.418637,4293.194464,-78294.959896
8787.837871,-7254.018232,3552.988522,-79520.712692
8787.840449,1036.288319,1184.329507,-74311.263306
8787.843027,-5033.400406,740.205942,-73851.606007
8787.845605,-5181.441594,5921.647536,-77528.864398
8787.848183,-8142.265362,7550.100608,-81512.560987
8787.850762,-1036.288319,2812.782580,-77835.302597
8787.853340,-2516.700203,-3552.988522,-76149.892501
8787.855918,14952.160028,-8882.471304,-77835.302597
8787.858496,19541.436869,-17468.860231,-75537.016103
8787.861074,7846.182985,-17172.777854,-76149.892501
8787.863653,740.205942,-12583.501014,-80593.246390
8787.866231,-740.205942,740.205942,-77222.426198
8787.868809,-1480.411884,2960.823768,-76915.987999
8787.871387,2960.823768,-592.164754,-76915.987999
8787.873966,10066.800811,-3849.070898,-77069.207099
8787.876544,5921.647536,-2960.823768,-74617.701505
8787.879122,-5477.523971,0.000000,-76609.549800
8787.881700,296.082377,-9770.718434,-80286.808190
8787.884278,4145.153275,-4293.194464,-78294.959896
8787.886857,-1184.329507,-11843.295072,-76609.549800
8787.889435,8586.388927,-1184.329507,-75383.797003
8787.892013,18357.107362,-5477.523971,-77988.521696
8787.894591,2220.617826,-5181.441594,-77222.426198
8787.897169,0.000000,-7254.018232,-79673.931792
8787.899748,4293.194464,-7698.141797,-77988.521696
8787.902326,6365.771101,-5921.647536,-75383.797003
8787.904904,-2368.659014,-2664.741391,-77988.521696
8787.907482,-6809.894666,3256.906145,-78448.178995
8787.910061,-13471.748144,16136.489536,-76149.892501
8787.912640,-17912.983796,13471.748144,-78294.959896
8787.915218,-5477.523971,10510.924376,-76762.768900
8787.917797,7994.224174,-1332.370696,-76456.330700
8787.920376,4145.153275,-8290.306550,-76456.330700
8787.922954,-7994.224174,-592.164754,-77375.645298
8787.925533,-10658.965565,-2220.617826,-81665.780087
8787.928112,1184.329507,1036.288319,-77682.083497
8787.930691,-3701.029710,444.123565,-74924.139704
8787.933269,2072.576638,6069.688724,-75690.235202
8787.935848,6513.812290,444.123565,-75537.016103
8787.938427,-7550.100608,1480.411884,-78754.617194
8787.941005,-13619.789333,8438.347739,-78294.959896
8787.943584,-3256.906145,2664.741391,-79827.150892
8787.946163,-4441.235652,1628.453072,-74464.482406
8787.948741,-3997.112087,2516.700203,-74158.044206
8787.951320,-2516.700203,5625.565159,-76762.768900
8787.953899,-7550.100608,7402.059420,-79520.712692
8787.956478,-9770.718434,2812.782580,-77988.521696
8787.959056,4441.235652,-2960.823768,-77988.521696
8787.961635,20133.601622,-10362.883188,-77682.083497
8787.964214,15840.407159,-18061.024985,-74004.825107
8787.966792,6809.894666,-13323.706956,-76303.111601
8787.969371,-148.041188,-11251.130318,-79673.931792
8787.971950,-3701.029710,1628.453072,-78754.617194
8787.974528,-8290.306550,3849.070898,-77988.521696
8787.977107,6217.729913,-888.247130,-77682.083497
8787.979686,11843.295072,-5181.441594,-75230.577904
8787.982264,592.164754,-592.164754,-73391.948708
8787.984843,-9326.594869,-2220.617826,-78601.398095
8787.987422,3997.112087,-6217.729913,-81512.560987
8787.990001,3997.112087,-3552.988522,-77988.521696
8787.992579,1184.329507,-9770.718434,-77069.207099
8787.995158,15544.324782,-6217.729913,-74770.920605
8787.997737,10214.842000,-5477.523971,-74924.139704
8788.000315,1332.370696,-2960.823768,-78141.740796
8788.002894,6365.771101,-12287.418637,-81206.122788
8788.005473,3552.988522,-4589.276840,-77069.207099
8788.008051,3701.029710,-5773.606348,-74004.825107
8788.010630,-7846.182985,1332.370696,-77988.521696
8788.013208,-9178.553681,10214.842000,-77988.521696
8788.015786,-18653.189738,17468.860231,-76915.987999
8788.018364,-11991.336260,15396.283594,-77682.083497
8788.020941,5477.523971,7105.977043,-77988.521696
8788.023519,4589.276840,-5773.606348,-75537.016103
8788.026097,148.041188,-3404.947333,-76456.330700
8788.028675,1480.411884,-4885.359217,-78448.178995
8788.031253,-2368.659014,-2812.782580,-78601.398095
8788.033830,-3256.906145,-888.247130,-76456.330700
8788.036408,-1480.411884,6069.688724,-77528.864398
8788.038986,8290.306550,3404.947333,-76762.768900
8788.041564,-6957.935855,148.041188,-74464.482406
8788.044142,-12731.542202,6957.935855,-79367.493593
8788.046720,-2960.823768,1776.494261,-80593.246390
8788.049297,-12583.501014,6217.729913,-77222.426198
8788.051875,-5477.523971,1332.370696,-77528.864398
8788.054453,-592.164754,0.000000,-76762.768900
8788.057031,-2072.576638,8734.430116,-76609.549800
8788.059609,-17320.819043,5625.565159,-76303.111601
8788.062186,-148.041188,592.164754,-79827.150892
8788.064764,12879.583391,-6513.812290,-78448.178995
8788.067342,10658.965565,-12879.583391,-76456.330700
8788.069920,14063.912898,-15544.324782,-78294.959896
8788.072498,10807.006753,-18653.189738,-77528.864398
8788.075075,-3849.070898,-1480.411884,-76303.111601
8788.077653,-8290.306550,1924.535449,-80133.589091
8788.080231,2072.576638,2664.741391,-78601.398095
8788.082809,13471.748144,-4441.235652,-75996.673402
8788.085387,5181.441594,-1628.453072,-73238.729609
8788.087965,-3108.864956,148.041188,-77528.864398
8788.090542,3552.988522,-8734.430116,-78907.836294
8788.093120,-7846.182985,-4441.235652,-77069.207099
8788.095698,5625.565159,-6957.935855,-80593.246390
8788.098276,10214.842000,-6217.729913,-76915.987999
8788.100854,14656.077652,-6217.729913,-74770.920605
8788.103431,1628.453072,-7105.977043,-77528.864398
8788.106009,8142.265362,-6217.729913,-79520.712692
8788.108587,2516.700203,-8438.347739,-78141.740796
8788.111165,0.000000,-4145.153275,-74770.920605
8788.113743,5625.565159,-5921.647536,-79367.493593
8788.116320,-6809.894666,5033.400406,-75843.454302
8788.118897,-19837.519246,10214.842000,-76149.892501
8788.121474,-14211.954086,16432.571912,-78448.178995
8788.124051,3701.029710,8586.388927,-77375.645298
8788.126629,3552.988522,1332.370696,-75996.673402
8788.129206,-1628.453072,-4589.276840,-75996.673402
8788.131783,3701.029710,-6217.729913,-78294.959896
8788.134360,-7402.059420,1776.494261,-78294.959896
8788.136937,-9770.718434,-444.123565,-78601.398095
8788.139514,2072.576638,1036.288319,-78448.178995
8788.142092,8882.471304,3849.070898,-74770.920605
8788.144669,-4293.194464,2368.659014,-73545.167808
8788.147246,-10362.883188,3997.112087,-78601.398095
8788.149823,-4885.359217,2368.659014,-81206.122788
8788.152400,-11103.089130,6069.688724,-77682.083497
8788.154977,-8438.347739,2664.741391,-77988.521696
8788.157555,4885.359217,1036.288319,-74464.482406
8788.160132,-1036.288319,5477.523971,-73698.386908
8788.162709,-15988.448347,8882.471304,-77988.521696
8788.165286,-444.123565,296.082377,-81206.122788
8788.167863,10510.924376,-2072.576638,-78601.398095
8788.170440,11695.253884,-10658.965565,-76456.330700
8788.173018,11399.171507,-15396.283594,-77375.645298
8788.175595,14804.118840,-20281.642811,-77375.645298
8788.178172,-4441.235652,-8734.430116,-75077.358804
8788.180749,-6957.935855,148.041188,-79520.712692
8788.183326,3108.864956,3997.112087,-80899.684589
8788.185903,6661.853478,296.082377,-77988.521696
8788.188481,2072.576638,-5033.400406,-75383.797003
8788.191058,-6217.729913,-1480.411884,-76915.987999
8788.193635,3849.070898,-4589.276840,-77528.864398
8788.196212,-3108.864956,-7550.100608,-77528.864398
8788.198789,2960.823768,-6957.935855,-80746.465489
8788.201366,12435.459826,-7402.059420,-77835.302597
8788.203944,9326.594869,-5625.565159,-74158.044206
8788.206521,4737.318029,-8290.306550,-77375.645298
8788.209098,14508.036463,-8142.265362,-78448.178995
8788.211675,-1332.370696,-7254.018232,-77835.302597
8788.214252,1924.535449,-5329.482782,-75843.454302
8788.216829,592.164754,-1036.288319,-78907.836294
8788.219406,-7994.224174,5329.482782,-75996.673402
8788.221983,-21169.889941,12287.418637,-73698.386908
8788.224559,-10807.006753,15396.283594,-78448.178995
8788.227136,3108.864956,12435.459826,-77835.302597
8788.229713,148.041188,-1628.453072,-76149.892501
8788.232290,888.247130,-2812.782580,-77069.207099
8788.234866,2960.823768,-6365.771101,-77988.521696
8788.237443,-7402.059420,296.082377,-75843.454302
8788.240020,-8734.430116,148.041188,-78141.740796
8788.242596,1480.411884,1628.453072,-79980.369991
8788.245173,8438.347739,5921.647536,-75537.016103
8788.247750,-5329.482782,1628.453072,-75996.673402
8788.250326,-7105.977043,5329.482782,-76609.549800
8788.252903,-2516.700203,-740.205942,-79367.493593
8788.255480,-16876.695478,4145.153275,-75383.797003
8788.258056,-3108.864956,3552.988522,-79673.931792
8788.260633,2664.741391,2516.700203,-78141.740796
8788.263210,-2812.782580,6069.688724,-75690.235202
8788.265786,-14952.160028,8290.306550,-77222.426198
8788.268363,2664.741391,740.205942,-78448.178995
8788.270940,6957.935855,-7254.018232,-76609.549800
8788.273517,12583.501014,-8438.347739,-75537.016103
8788.276093,13323.706956,-19097.313304,-79980.369991
8788.278670,12731.542202,-19245.354492,-76149.892501
8788.281247,-3552.988522,-2664.741391,-75843.454302
8788.283823,-9622.677246,-296.082377,-79827.150892
8788.286400,4589.276840,3701.029710,-78448.178995
8788.288977,12731.542202,-3256.906145,-77069.207099
8788.291553,1776.494261,888.247130,-74004.825107
8788.294130,2960.823768,-6809.894666,-77988.521696
8788.296707,-1924.535449,-2812.782580,-76915.987999
8788.299283,-2664.741391,-7994.224174,-79367.493593
8788.301860,4589.276840,-6661.853478,-78907.836294
8788.304437,17616.901420,-4441.235652,-75690.235202
8788.307014,9030.512492,-6217.729913,-75690.235202
8788.309590,2368.659014,-5773.606348,-77375.645298
8788.312167,8734.430116,-10510.924376,-80899.684589
8788.314744,-296.082377,-4293.194464,-77069.207099
8788.317320,2516.700203,-5181.441594,-78907.836294
8788.319897,1184.329507,-4293.194464,-77835.302597
8788.322473,-8882.471304,9770.718434,-74158.044206
8788.325049,-22206.178260,16136.489536,-76609.549800
8788.327626,-6661.853478,15248.242405,-78448.178995
8788.330202,4885.359217,6661.853478,-78294.959896
8788.332778,1776.494261,-4589.276840,-75383.797003
8788.335354,-2072.576638,-4885.359217,-77835.302597
8788.337930,-5033.400406,-2516.700203,-79214.274493
8788.340507,-4589.276840,296.082377,-79214.274493
8788.343083,-4885.359217,740.205942,-77222.426198
8788.345659,5329.482782,4885.359217,-78448.178995
8788.348235,3849.070898,2368.659014,-74617.701505
8788.350812,-1036.288319,5773.606348,-75690.235202
8788.353388,-18061.024985,2516.700203,-79367.493593
8788.355964,-6809.894666,3108.864956,-79827.150892
8788.358540,-4145.153275,1184.329507,-76915.987999
8788.361116,-4737.318029,4293.194464,-74464.482406
8788.363693,3997.112087,6217.729913,-76915.987999
8788.366269,-10362.883188,3849.070898,-76303.111601
8788.368845,-3404.947333,2664.741391,-76762.768900
8788.371421,3404.947333,-2812.782580,-79214.274493
8788.373997,19541.436869,-9918.759623,-77835.302597
8788.376574,15396.283594,-18505.148550,-77528.864398
8788.379150,1776.494261,-17912.983796,-77222.426198
8788.381726,4293.194464,-9326.594869,-77222.426198
8788.384302,-5181.441594,592.164754,-78141.740796
8788.386879,-7846.182985,5181.441594,-79367.493593
8788.389455,10807.006753,740.205942,-80593.246390
8788.392031,8586.388927,-2812.782580,-73698.386908
8788.394607,-1480.411884,-4441.235652,-74617.701505
8788.397183,-5329.482782,-6661.853478,-79827.150892
8788.399760,4737.318029,-6513.812290,-79214.274493
8788.402336,3256.906145,-7994.224174,-76915.987999
8788.404912,2812.782580,-6217.729913,-75843.454302
8788.407488,22206.178260,-5921.647536,-78141.740796
8788.410064,7698.141797,-7254.018232,-76149.892501
8788.412641,888.247130,-4737.318029,-78754.617194
8788.415217,2664.741391,-10955.047942,-79673.931792
8788.417793,4145.153275,-3404.947333,-76609.549800
8788.420369,-6365.771101,2960.823768,-76149.892501
8788.422946,-17468.860231,7105.977043,-78601.398095
8788.425520,-9474.636058,18505.148550,-76456.330700
8788.428095,-6957.935855,11547.212695,-77222.426198
8788.430670,-5477.523971,10362.883188,-77988.521696
8788.433245,10362.883188,-3404.947333,-77835.302597
8788.435819,-2072.576638,-4589.276840,-75383.797003
8788.438394,-8142.265362,-3849.070898,-78294.959896
8788.440969,-4145.153275,-2812.782580,-79827.150892
8788.443544,5033.400406,4589.276840,-76456.330700
8788.446118,-5477.523971,2072.576638,-76303.111601
8788.448693,-1184.329507,7105.977043,-78294.959896
8788.451268,1332.370696,3108.864956,-76149.892501
8788.453843,-12879.583391,2072.576638,-76149.892501
8788.456418,-9474.636058,5033.400406,-79520.712692
8788.458992,-4589.276840,-888.247130,-78294.959896
8788.461567,-148.041188,3108.864956,-74617.701505
8788.464142,-9326.594869,5773.606348,-77988.521696
8788.466717,-6809.894666,6365.771101,-77222.426198
8788.469291,3108.864956,-296.082377,-77682.083497
8788.471866,296.082377,-4293.194464,-75690.235202
8788.474441,15840.407159,-8438.347739,-78907.836294
8788.477016,14359.995275,-20281.642811,-78141.740796
8788.479590,5181.441594,-19245.354492,-75230.577904
8788.482165,888.247130,-9326.594869,-77069.207099
8788.484740,2220.617826,888.247130,-77835.302597
8788.487315,-2812.782580,2220.617826,-76762.768900
8788.489890,4737.318029,-444.123565,-77069.207099
8788.492464,6661.853478,-1036.288319,-77222.426198
8788.495039,1184.329507,-5773.606348,-75230.577904
8788.497614,-4589.276840,-3997.112087,-76149.892501
8788.500189,2072.576638,-5773.606348,-80440.027290
8788.502763,6217.729913,-9918.759623,-78141.740796
8788.505338,4293.194464,-6217.729913,-73698.386908
8788.507913,15248.242405,-5181.441594,-78141.740796
8788.510488,11695.253884,-8290.306550,-80133.589091
8788.513062,6513.812290,-7105.977043,-76915.987999
8788.515637,-5921.647536,-6217.729913,-78754.617194
8788.518212,9918.759623,-5625.565159,-78294.959896
8788.520787,-6661.853478,1776.494261,-75843.454302
8788.523362,-21169.889941,9178.553681,-75537.016103
8788.525936,-8734.430116,17320.819043,-79827.150892
8788.528510,-3997.112087,11991.336260,-76609.549800
8788.531084,-444.123565,8882.471304,-76149.892501
8788.533657,3997.112087,-3849.070898,-77375.645298
8788.536231,5477.523971,-5921.647536,-77222.426198
8788.538805,-9622.677246,-3256.906145,-77835.302597
8788.541378,-13915.871710,1628.453072,-78754.617194
8788.543952,7698.141797,0.000000,-79061.055394
8788.546526,2368.659014,3256.906145,-76456.330700
8788.549099,-5625.565159,6513.812290,-76456.330700
8788.551673,-1480.411884,3108.864956,-78448.178995
8788.554247,-6957.935855,7846.182985,-76303.111601
8788.556820,-18061.024985,-592.164754,-78294.959896
8788.559394,-6957.935855,3404.947333,-78907.836294
8788.561967,5181.441594,1184.329507,-76456.330700
8788.564541,-8586.388927,10066.800811,-74158.044206
8788.567115,-8290.306550,5329.482782,-78601.398095
8788.569688,6365.771101,-3849.070898,-78448.178995
8788.572262,6513.812290,-1184.329507,-75077.358804
8788.574836,6809.894666,-12139.377449,-78448.178995
8788.577409,19245.354492,-18505.148550,-78448.178995
8788.579983,6957.935855,-18653.189738,-77222.426198
8788.582557,-7254.018232,-5921.647536,-74464.482406
8788.585130,-148.041188,6217.729913,-78294.959896
8788.587704,740.205942,-740.205942,-79214.274493
8788.590278,5921.647536,888.247130,-75383.797003
8788.592851,1628.453072,-4145.153275,-76762.768900
8788.595425,6217.729913,-3404.947333,-76149.892501
8788.597999,-3701.029710,-6957.935855,-78907.836294
8788.600572,-6069.688724,-6365.771101,-79214.274493
8788.603146,11991.336260,-7846.182985,-76456.330700
8788.605720,12287.418637,-9178.553681,-74924.139704
8788.608293,9474.636058,-5181.441594,-74158.044206
8788.610867,6809.894666,-7846.182985,-81206.122788
8788.613441,5329.482782,-9030.512492,-77988.521696
8788.616014,-3997.112087,-3849.070898,-75843.454302
8788.618588,-3404.947333,-1332.370696,-78601.398095
8788.621162,-6217.729913,5921.647536,-77222.426198
8788.623735,-18357.107362,9030.512492,-76149.892501
8788.626309,-10658.965565,13767.830521,-75537.016103
8788.628882,4589.276840,12583.501014,-78141.740796
8788.631458,3256.906145,-444.123565,-76303.111601
8788.634030,-3849.070898,-3108.864956,-75537.016103
8788.636601,-7254.018232,-5625.565159,-79214.274493
8788.639173,-1924.535449,-444.123565,-77069.207099
8788.641745,-5921.647536,1332.370696,-76609.549800
8788.644317,2812.782580,2664.741391,-78141.740796
8788.646889,6069.688724,2220.617826,-77375.645298
8788.649461,-7254.018232,4589.276840,-75843.454302
8788.652033,-10955.047942,7994.224174,-78141.740796
8788.654605,-10658.965565,-148.041188,-81359.341888
8788.657177,-4737.318029,3701.029710,-75996.673402
8788.659749,-5329.482782,1776.494261,-77222.426198
8788.662321,-1776.494261,6957.935855,-76456.330700
8788.664893,-5921.647536,8586.388927,-76762.768900
8788.667465,-6661.853478,148.041188,-75843.454302
8788.670036,10955.047942,-4589.276840,-78907.836294
8788.672608,18061.024985,-14656.077652,-78601.398095
8788.675180,12583.501014,-14063.912898,-75383.797003
8788.677752,2812.782580,-20281.642811,-79214.274493
8788.680324,2220.617826,-7550.100608,-76915.987999
8788.682896,-592.164754,2368.659014,-77069.207099
8788.685468,-7254.018232,4589.276840,-77682.083497
8788.688040,11695.253884,-2368.659014,-79061.055394
8788.690612,5921.647536,-1332.370696,-74158.044206
8788.693184,-3256.906145,-2960.823768,-73698.386908
8788.695756,-1184.329507,-4885.359217,-80899.684589
8788.698328,4441.235652,-6809.894666,-80593.246390
8788.700899,2960.823768,-10362.883188,-76762.768900
8788.703471,4589.276840,-5625.565159,-74464.482406
8788.706043,20429.683999,-8586.388927,-75690.235202
8788.708615,8586.388927,-4737.318029,-77222.426198
8788.711187,-3701.029710,-8290.306550,-79827.150892
8788.713759,4885.359217,-5329.482782,-80440.027290
8788.716331,592.164754,-2368.659014,-77222.426198
8788.718903,-18061.024985,7994.224174,-74770.920605
8788.721475,-14508.036463,12731.542202,-78141.740796
8788.724047,888.247130,14063.912898,-78141.740796
8788.726619,-3997.112087,10362.883188,-74770.920605
8788.729191,-888.247130,3701.029710,-78141.740796
8788.731763,5181.441594,-7994.224174,-77375.645298
8788.734300,-1036.288319,-4589.276840,-77222.426198
8788.736838,-13915.871710,-1924.535449,-79520.712692
8788.739376,1776.494261,-1480.411884,-79673.931792
8788.741914,10066.800811,4589.276840,-77222.426198
8788.744452,-7105.977043,2368.659014,-74924.139704
8788.746989,-2072.576638,8586.388927,-76915.987999
8788.749527,-5033.400406,3997.112087,-78754.617194
8788.752065,-17468.860231,2812.782580,-76303.111601
8788.754603,-6365.771101,2368.659014,-79214.274493
8788.757141,2220.617826,-592.164754,-78294.959896
8788.759678,-4589.276840,12139.377449,-74158.044206
8788.762216,-10658.965565,5921.647536,-75843.454302
8788.764754,0.000000,-2812.782580,-78601.398095
8788.767292,13175.665768,-4737.318029,-79673.931792
8788.769829,12139.377449,-12287.418637,-74924.139704
8788.772367,5921.647536,-18357.107362,-78754.617194
8788.774905,12731.542202,-19689.478057,-77835.302597
8788.777443,-3256.906145,-3256.906145,-75690.235202
8788.779981,-7402.059420,1184.329507,-78907.836294
8788.782518,4293.194464,3997.112087,-79214.274493
8788.785056,6513.812290,-1924.535449,-75843.454302
8788.787594,-888.247130,-3701.029710,-73545.167808
8788.790132,-2664.741391,-5625.565159,-77222.426198
8788.792670,5181.441594,-6661.853478,-77222.426198
8788.795207,2220.617826,-6957.935855,-78141.740796
8788.797745,2960.823768,-9030.512492,-79214.274493
8788.800283,18801.230927,-5773.606348,-75537.016103
8788.802821,9474.636058,-6513.812290,-73238.729609
8788.805359,4145.153275,-6069.688724,-79214.274493
8788.807896,6661.853478,-9770.718434,-79827.150892
8788.810434,2072.576638,-5773.606348,-78141.740796
8788.812972,-12287.418637,6513.812290,-75843.454302
8788.815510,-15988.448347,10510.924376,-78448.178995
8788.818048,-5625.565159,12287.418637,-76303.111601
8788.820585,-6365.771101,9326.594869,-75230.577904
8788.823123,-296.082377,10807.006753,-77988.521696
8788.825661,7994.224174,-4589.276840,-79061.055394
8788.828199,-7550.100608,-6365.771101,-76456.330700
8788.830737,-7254.018232,-3256.906145,-79214.274493
8788.833274,-8142.265362,1924.535449,-78448.178995
8788.835818,10510.924376,-1480.411884,-75843.454302
8788.838362,-7105.977043,3108.864956,-74617.701505
8788.840906,1480.411884,5921.647536,-78448.178995
8788.843450,-4885.359217,5477.523971,-77682.083497
8788.845994,-12731.542202,5181.441594,-75537.016103
8788.848537,-11399.171507,1184.329507,-80133.589091
8788.851081,1776.494261,-296.082377,-77528.864398
8788.853625,-5625.565159,3108.864956,-75383.797003
8788.856169,-9030.512492,6513.812290,-76456.330700
8788.858713,1036.288319,2664.741391,-77528.864398
8788.861257,9770.718434,-7254.018232,-78141.740796
8788.863801,5329.482782,-4885.359217,-75537.016103
8788.866344,15248.242405,-17616.901420,-78141.740796
8788.868888,10362.883188,-18653.189738,-76303.111601
8788.871432,-2812.782580,-16580.613101,-75843.454302
8788.873976,-148.041188,1776.494261,-78141.740796
8788.876520,740.205942,0.000000,-80286.808190
8788.879064,6069.688724,740.205942,-77222.426198
8788.881608,-592.164754,1184.329507,-76915.987999
8788.884151,1776.494261,-6661.853478,-76609.549800
8788.886695,5033.400406,-3404.947333,-76456.330700
8788.889239,-10658.965565,-9178.553681,-79520.712692
8788.891783,12731.542202,-7698.141797,-78448.178995
8788.894327,10510.924376,-8586.388927,-75537.016103
8788.896871,8734.430116,-6809.894666,-74770.920605
8788.899415,12435.459826,-5625.565159,-77528.864398
8788.901958,7994.224174,-11103.089130,-79980.369991
8788.904502,-1184.329507,-444.123565,-76149.892501
8788.907046,-7846.182985,-888.247130,-79827.150892
8788.909590,-12583.501014,10214.842000,-79367.493593
8788.912134,-13027.624579,13027.624579,-77835.302597
8788.914678,-10510.924376,13175.665768,-75996.673402
8788.917221,6069.688724,9326.594869,-76303.111601
8788.919765,4737.318029,1480.411884,-75843.454302
8788.922309,-6809.894666,-6957.935855,-76915.987999
8788.924853,-11547.212695,-3997.112087,-80133.589091
8788.927397,-3108.864956,1924.535449,-78141.740796
8788.929941,-888.247130,148.041188,-75996.673402
8788.932485,-444.123565,2812.782580,-76915.987999
8788.935028,5921.647536,4293.194464,-77528.864398
8788.937544,-6513.812290,6513.812290,-74158.044206
8788.940060,-14656.077652,7105.977043,-80593.246390
8788.942576,-8734.430116,1480.411884,-80746.465489
8788.945092,-4145.153275,1036.288319,-77069.207099
8788.947608,-6365.771101,296.082377,-74770.920605
8788.950123,-5773.606348,10510.924376,-76915.987999
8788.952639,1924.535449,2664.741391,-76149.892501
8788.955155,148.041188,-3552.988522,-75843.454302
8788.957671,7550.100608,-6513.812290,-80593.246390
8788.960187,18061.024985,-14359.995275,-77682.083497
8788.962702,8586.388927,-16728.654289,-76456.330700
8788.965218,-1036.288319,-17912.983796,-77682.083497
8788.967734,1628.453072,1036.288319,-77835.302597
8788.970250,4145.153275,592.164754,-78448.178995
8788.972766,-1036.288319,5329.482782,-76456.330700
8788.975281,3997.112087,-296.082377,-78907.836294
8788.977797,5921.647536,-8882.471304,-75843.454302
8788.980313,-888.247130,-6809.894666,-75230.577904
8788.982829,-5181.441594,-6069.688724,-79827.150892
8788.985345,11991.336260,-7698.141797,-78754.617194
8788.987861,4885.359217,-12139.377449,-75843.454302
8788.990376,10362.883188,-7846.182985,-73238.729609
8788.992892,12583.501014,-3997.112087,-78141.740796
8788.995408,1628.453072,-7994.224174,-77375.645298
8788.997924,-3108.864956,-7105.977043,-77682.083497
8789.000440,-4441.235652,-1184.329507,-78294.959896
8789.002955,-13323.706956,8882.471304,-76762.768900
8789.005471,-19097.313304,14508.036463,-76915.987999
8789.007987,-4885.359217,9918.759623,-77835.302597
8789.010503,7550.100608,9918.759623,-74924.139704
8789.013019,2960.823768,-1924.535449,-75690.235202
8789.015534,-7698.141797,-2516.700203,-76915.987999
8789.018050,1332.370696,-5033.400406,-81359.341888
8789.020566,-8586.388927,444.123565,-78448.178995
8789.023082,-3256.906145,2220.617826,-76303.111601
8789.025598,1628.453072,2072.576638,-77528.864398
8789.028114,5181.441594,3552.988522,-73545.167808
8789.030629,-12879.583391,5329.482782,-77528.864398
8789.033145,-8438.347739,10807.006753,-80440.027290
8789.035661,-3256.906145,888.247130,-81052.903688
8789.038187,-4293.194464,-444.123565,-75843.454302
8789.040714,-7994.224174,5033.400406,-75077.358804
8789.043240,-2812.782580,6069.688724,-77222.426198
8789.045767,148.041188,5625.565159,-75843.454302
8789.048293,1776.494261,-4145.153275,-78907.836294
8789.050819,10658.965565,-7105.977043,-78907.836294
8789.053346,15544.324782,-14656.077652,-77069.207099
8789.055872,1628.453072,-16580.613101,-75230.577904
8789.058398,-1036.288319,-11695.253884,-77069.207099
8789.060925,2960.823768,-3108.864956,-77988.521696
8789.063451,2516.700203,5773.606348,-75843.454302
8789.065978,-1184.329507,5477.523971,-78601.398095
8789.068504,6217.729913,-6513.812290,-77835.302597
8789.071030,3997.112087,-1184.329507,-75383.797003
8789.073557,-7698.141797,-6957.935855,-75996.673402
8789.076083,9918.759623,-7254.018232,-79367.493593
8789.078609,3849.070898,-9918.759623,-77528.864398
8789.081136,9622.677246,-10214.842000,-73698.386908
8789.083662,10658.965565,-3849.070898,-77835.302597
8789.086189,13915.871710,-8142.265362,-77375.645298
8789.088715,-1480.411884,-6661.853478,-76609.549800
8789.091241,740.205942,-5773.606348,-78754.617194
8789.093768,-4293.194464,1184.329507,-77988.521696
8789.096294,-14508.036463,13619.789333,-76456.330700
8789.098821,-19985.560434,12731.542202,-79367.493593
8789.101347,2960.823768,11695.253884,-78294.959896
8789.103873,5625.565159,5033.400406,-74770.920605
8789.106400,-1776.494261,-3997.112087,-74617.701505
8789.108926,-2960.823768,444.123565,-79673.931792
8789.111452,-6661.853478,-7846.182985,-78754.617194
8789.113979,-6069.688724,2072.576638,-77069.207099
8789.116505,-1628.453072,2960.823768,-78448.178995
8789.119040,8586.388927,2812.782580,-75843.454302
8789.121575,-4441.235652,4293.194464,-74004.825107
8789.124110,-13175.665768,6957.935855,-76762.768900
8789.126644,-9178.553681,9770.718434,-80899.684589
8789.129179,-6365.771101,-1036.288319,-78907.836294
8789.131714,-5477.523971,-1184.329507,-74311.263306
8789.134249,-3701.029710,6661.853478,-77835.302597
8789.136783,-1776.494261,6661.853478,-74924.139704
8789.139318,-2812.782580,-1776.494261,-75537.016103
8789.141853,6661.853478,-2812.782580,-78448.178995
8789.144388,19985.560434,-11547.212695,-79673.931792
8789.146923,5625.565159,-17320.819043,-77222.426198
8789.149457,2368.659014,-17172.777854,-75996.673402
8789.151992,1184.329507,-8586.388927,-78294.959896
8789.154527,-444.123565,1480.411884,-76456.330700
8789.157062,-3701.029710,2368.659014,-76762.768900
8789.159596,5329.482782,3849.070898,-78294.959896
8789.162131,4589.276840,-6513.812290,-77528.864398
8789.164666,-3552.988522,-3701.029710,-73085.510509
8789.167201,0.000000,-5773.606348,-78141.740796
8789.169736,6513.812290,-7550.100608,-78601.398095
8789.172270,19393.395680,-7994.224174,-76609.549800
8789.174805,9178.553681,-10955.047942,-74464.482406
8789.177340,11103.089130,-4589.276840,-77682.083497
8789.179875,5181.441594,-8882.471304,-78754.617194
8789.182409,-888.247130,-5033.400406,-76456.330700
8789.184944,-10807.006753,2516.700203,-78907.836294
8789.187479,-10510.924376,10066.800811,-77682.083497
8789.190014,-14656.077652,16432.571912,-76456.330700
8789.192548,-8882.471304,7698.141797,-78907.836294
8789.195083,2812.782580,8290.306550,-76762.768900
8789.197618,6069.688724,-3404.947333,-76915.987999
8789.200153,-5773.606348,-3552.988522,-75230.577904
8789.202688,-5921.647536,-3256.906145,-81665.780087
8789.205222,-6365.771101,-888.247130,-77682.083497
8789.207757,1480.411884,1480.411884,-74924.139704
8789.210292,-1332.370696,2072.576638,-77222.426198
8789.212827,6069.688724,4737.318029,-76303.111601
8789.215361,-11843.295072,5329.482782,-77222.426198
8789.217896,-18209.066173,4441.235652,-79673.931792
8789.220438,-6513.812290,3552.988522,-80593.246390
8789.222980,-1184.329507,-2664.741391,-75690.235202
8789.225522,-7402.059420,6513.812290,-74158.044206
8789.228064,-2812.782580,6513.812290,-78141.740796
8789.230606,5181.441594,148.041188,-76609.549800
8789.233147,1184.329507,-5181.441594,-77375.645298
8789.235689,12139.377449,-9326.594869,-77988.521696
8789.238231,13471.748144,-16876.695478,-78754.617194
8789.240773,4885.359217,-19245.354492,-75077.358804
8789.243315,-4145.153275,-4441.235652,-75537.016103
8789.245857,2960.823768,-740.205942,-79673.931792
8789.248399,4293.194464,4145.153275,-77375.645298
8789.250940,1628.453072,888.247130,-77069.207099
8789.253482,1628.453072,1776.494261,-74617.701505
8789.256024,4885.359217,-10955.047942,-77988.521696
8789.258566,-5773.606348,-5477.523971,-74924.139704
8789.261108,-1776.494261,-8586.388927,-78448.178995
8789.263650,13471.748144,-11695.253884,-79214.274493
8789.266192,16136.489536,-6365.771101,-74464.482406
8789.268733,4441.235652,-10066.800811,-76915.987999
8789.271275,10807.006753,-5921.647536,-77988.521696
8789.273817,148.041188,-5181.441594,-78294.959896
8789.276359,-11103.089130,1036.288319,-76915.987999
8789.278901,-13619.789333,10362.883188,-79520.712692
8789.281443,-13915.871710,13175.665768,-77528.864398
8789.283985,-3552.988522,12583.501014,-74311.263306
8789.286527,-1628.453072,5625.565159,-77375.645298
8789.289068,8882.471304,1924.535449,-75996.673402
8789.291610,-2072.576638,-4885.359217,-77682.083497
8789.294152,-13767.830521,-2664.741391,-79673.931792
8789.296694,-1776.494261,-1184.329507,-82125.437386
8789.299236,4145.153275,592.164754,-77375.645298
8789.301778,-4441.235652,7550.100608,-74770.920605
8789.304320,4145.153275,1480.411884,-75690.235202
8789.306861,-5181.441594,8882.471304,-77835.302597
8789.309403,-15248.242405,3849.070898,-77528.864398
8789.311945,-13915.871710,1924.535449,-79827.150892
8789.314487,6217.729913,-740.205942,-78601.398095
8789.317029,-9178.553681,4737.318029,-74770.920605
8789.319571,-4145.153275,6365.771101,-76149.892501
8789.322119,8882.471304,-2220.617826,-77222.426198
8789.324667,3108.864956,-3404.947333,-75537.016103
8789.327215,8438.347739,-8290.306550,-80133.589091
8789.329763,7846.182985,-19245.354492,-80899.684589
