#time,accel_x,accel_y,accel_z
8912.460003,-4737.318029,-1332.370696,-76609.549800
8912.462575,3849.070898,1332.370696,-77375.645298
8912.465147,-296.082377,-2516.700203,-76915.987999
8912.467719,-4737.318029,-3997.112087,-77528.864398
8912.470292,296.082377,2516.700203,-77835.302597
8912.472864,3701.029710,-3552.988522,-76915.987999
8912.475436,-2516.700203,-1184.329507,-77682.083497
8912.478008,-1332.370696,-1184.329507,-78754.617194
8912.480580,8734.430116,1332.370696,-75996.673402
8912.483152,-3256.906145,-2664.741391,-76149.892501
8912.485724,-296.082377,1924.535449,-77682.083497
8912.488296,5329.482782,-1036.288319,-77375.645298
8912.490868,1184.329507,3849.070898,-75537.016103
8912.493440,-1332.370696,4145.153275,-76456.330700
8912.496013,9622.677246,6069.688724,-79520.712692
8912.498586,16876.695478,2960.823768,-77835.302597
8912.501158,8586.388927,3997.112087,-77069.207099
8912.503731,1184.329507,-888.247130,-78141.740796
8912.506304,-5181.441594,-5625.565159,-76456.330700
8912.508876,-11251.130318,-2812.782580,-74770.920605
8912.511449,-9770.718434,-3849.070898,-79214.274493
8912.514022,7550.100608,-3404.947333,-78448.178995
8912.516595,7698.141797,-4885.359217,-77988.521696
8912.519167,-5181.441594,740.205942,-74464.482406
8912.521740,-5181.441594,-2664.741391,-78141.740796
8912.524313,-6217.729913,-3701.029710,-77222.426198
8912.526886,-6069.688724,-3256.906145,-76456.330700
8912.529458,1776.494261,-2072.576638,-78754.617194
8912.532031,6809.894666,-5329.482782,-77375.645298
8912.534604,-1036.288319,-7846.182985,-75996.673402
8912.537176,-8882.471304,-1628.453072,-78141.740796
8912.539749,-2072.576638,148.041188,-79980.369991
8912.542322,-592.164754,-3404.947333,-78907.836294
8912.544895,-1480.411884,-888.247130,-77375.645298
8912.547467,1332.370696,-740.205942,-77375.645298
8912.550040,-1184.329507,-888.247130,-76915.987999
8912.552613,-4293.194464,-3701.029710,-74464.482406
8912.555186,740.205942,-2072.576638,-77988.521696
8912.557758,3997.112087,-2960.823768,-78448.178995
8912.560331,-4737.318029,-6957.935855,-77069.207099
8912.562904,-10214.842000,-4441.235652,-76456.330700
8912.565476,-4145.153275,-7550.100608,-78141.740796
8912.568049,-5181.441594,-2960.823768,-77222.426198
8912.570622,-7550.100608,740.205942,-77375.645298
8912.573195,5921.647536,-4293.194464,-80286.808190
8912.575767,888.247130,-592.164754,-75537.016103
8912.578340,-3849.070898,-2812.782580,-77528.864398
8912.580913,-592.164754,-1184.329507,-78141.740796
8912.583486,-2072.576638,-3108.864956,-77988.521696
8912.586058,-5329.482782,-5329.482782,-77222.426198
8912.588631,-3256.906145,-4589.276840,-77988.521696
8912.591204,10955.047942,-5033.400406,-77682.083497
8912.593776,-1776.494261,1628.453072,-74924.139704
8912.596349,-888.247130,2072.576638,-78294.959896
8912.598922,4885.359217,2368.659014,-78601.398095
8912.601494,-1776.494261,2664.741391,-76149.892501
8912.604067,-4441.235652,1628.453072,-74617.701505
8912.606639,8290.306550,0.000000,-77682.083497
8912.609211,9326.594869,-740.205942,-78448.178995
8912.611784,-1480.411884,-1924.535449,-75383.797003
8912.614356,-444.123565,-444.123565,-77375.645298
8912.616929,3108.864956,740.205942,-77682.083497
8912.619501,-3256.906145,0.000000,-76149.892501
8912.622074,4293.194464,3108.864956,-78141.740796
8912.624646,10362.883188,-444.123565,-77835.302597
8912.627219,5773.606348,3108.864956,-76609.549800
8912.629791,-4885.359217,0.000000,-77069.207099
8912.632364,1036.288319,296.082377,-78601.398095
8912.634936,1184.329507,-1776.494261,-77682.083497
8912.637508,740.205942,1332.370696,-76762.768900
8912.640081,2072.576638,148.041188,-77682.083497
8912.642653,3256.906145,1480.411884,-75690.235202
8912.645226,-4441.235652,-3404.947333,-76303.111601
8912.647798,-1332.370696,296.082377,-78754.617194
8912.650371,5181.441594,2072.576638,-79673.931792
8912.652943,1332.370696,-1332.370696,-77375.645298
8912.655516,-4589.276840,2960.823768,-77069.207099
8912.658088,4145.153275,-148.041188,-79214.274493
8912.660661,4589.276840,7254.018232,-74770.920605
8912.663233,-1924.535449,2960.823768,-79367.493593
8912.665805,10955.047942,3108.864956,-78754.617194
8912.668378,5625.565159,-296.082377,-77835.302597
8912.670950,888.247130,2960.823768,-75843.454302
8912.673523,-2812.782580,740.205942,-77528.864398
8912.676095,4737.318029,-888.247130,-79367.493593
8912.678668,-2812.782580,-2368.659014,-76303.111601
8912.681240,-592.164754,-888.247130,-76149.892501
8912.683813,11547.212695,296.082377,-78141.740796
8912.686385,2812.782580,2072.576638,-77069.207099
8912.688958,-1628.453072,3997.112087,-78448.178995
8912.691530,7402.059420,2516.700203,-77682.083497
8912.694102,-3552.988522,3404.947333,-75996.673402
8912.696675,-15396.283594,-5033.400406,-75996.673402
8912.699247,-888.247130,-1332.370696,-78294.959896
8912.701817,4737.318029,-8586.388927,-77682.083497
8912.704389,-148.041188,-8142.265362,-74924.139704
8912.706961,-1776.494261,-7698.141797,-78294.959896
8912.709533,2368.659014,-4441.235652,-76915.987999
8912.712104,-8438.347739,-1184.329507,-75996.673402
8912.714676,-6513.812290,148.041188,-78141.740796
8912.717248,1332.370696,-2072.576638,-78907.836294
8912.719820,2072.576638,-1628.453072,-77222.426198
8912.722392,-2516.700203,-3701.029710,-76456.330700
8912.724964,-3404.947333,-3997.112087,-78754.617194
8912.727536,-1480.411884,-5477.523971,-76762.768900
8912.730108,-7105.977043,-3552.988522,-76915.987999
8912.732680,1924.535449,-1628.453072,-79827.150892
8912.735252,-888.247130,-1184.329507,-78448.178995
8912.737824,-6069.688724,-1776.494261,-74617.701505
8912.740396,444.123565,-2960.823768,-79367.493593
8912.742967,-1184.329507,-1480.411884,-79367.493593
8912.745539,888.247130,1184.329507,-75690.235202
8912.748111,-4885.359217,-2960.823768,-77988.521696
8912.750683,3108.864956,-1480.411884,-79061.055394
8912.753255,888.247130,-1480.411884,-74617.701505
8912.755827,-6217.729913,-5181.441594,-75843.454302
8912.758399,1776.494261,-5625.565159,-77988.521696
8912.760971,-3997.112087,-5477.523971,-76915.987999
8912.763543,-11399.171507,-4441.235652,-76915.987999
8912.766115,-3849.070898,-444.123565,-79520.712692
8912.768687,-592.164754,-3997.112087,-77682.083497
8912.771259,-2072.576638,-2812.782580,-76915.987999
8912.773830,-4885.359217,-1036.288319,-75843.454302
8912.776402,6217.729913,-3701.029710,-79061.055394
8912.778974,-4737.318029,-3256.906145,-76915.987999
8912.781546,-9030.512492,-6809.894666,-78448.178995
8912.784118,3404.947333,-7994.224174,-79061.055394
8912.786690,3404.947333,-4441.235652,-76456.330700
8912.789262,-5921.647536,-1480.411884,-77069.207099
8912.791834,3108.864956,3701.029710,-77988.521696
8912.794406,4885.359217,4145.153275,-77222.426198
8912.796978,-4145.153275,5773.606348,-74770.920605
8912.799550,148.041188,4145.153275,-77222.426198
8912.802122,7846.182985,2072.576638,-76303.111601
8912.804693,5477.523971,-2664.741391,-76915.987999
8912.807265,888.247130,-1776.494261,-78907.836294
8912.809836,4885.359217,-7254.018232,-78754.617194
8912.812408,1332.370696,-3108.864956,-77375.645298
8912.814979,-5921.647536,1924.535449,-76915.987999
8912.817551,7698.141797,5773.606348,-78294.959896
8912.820122,6809.894666,2812.782580,-76762.768900
8912.822694,592.164754,5773.606348,-75996.673402
8912.825266,2516.700203,4589.276840,-77835.302597
8912.827837,3552.988522,-1628.453072,-77682.083497
8912.830409,-5773.606348,-3404.947333,-77222.426198
8912.832980,4293.194464,-1480.411884,-77222.426198
8912.835552,4145.153275,-888.247130,-78907.836294
8912.838123,2072.576638,-444.123565,-77682.083497
8912.840695,-3849.070898,2220.617826,-76609.549800
8912.843266,3997.112087,-1628.453072,-79061.055394
8912.845838,2516.700203,1332.370696,-77222.426198
8912.848409,-3552.988522,-148.041188,-76915.987999
8912.850981,4441.235652,-296.082377,-79980.369991
8912.853553,2664.741391,2960.823768,-76456.330700
8912.856124,-888.247130,2812.782580,-74004.825107
8912.858696,5033.400406,4145.153275,-78907.836294
8912.861267,8882.471304,2368.659014,-77835.302597
8912.863839,5181.441594,-296.082377,-76915.987999
8912.866410,-2368.659014,2664.741391,-77835.302597
8912.868982,4885.359217,-1776.494261,-77988.521696
8912.871553,-3256.906145,-2072.576638,-77835.302597
8912.874125,-1332.370696,-1776.494261,-77835.302597
8912.876697,11991.336260,2812.782580,-79214.274493
8912.879268,4145.153275,2812.782580,-78141.740796
8912.881840,-2664.741391,2516.700203,-75690.235202
8912.884411,2516.700203,3997.112087,-78754.617194
8912.886983,-7994.224174,-1776.494261,-76915.987999
8912.889554,-14804.118840,-6513.812290,-74311.263306
8912.892126,-1924.535449,-3997.112087,-76609.549800
8912.894697,9622.677246,-10658.965565,-77528.864398
8912.897269,-148.041188,-7254.018232,-76762.768900
8912.899840,-2812.782580,-5773.606348,-78754.617194
8912.902412,1184.329507,-1924.535449,-79827.150892
8912.904984,-7550.100608,592.164754,-76915.987999
8912.907555,-9474.636058,2812.782580,-75230.577904
8912.910126,2220.617826,148.041188,-78907.836294
8912.912697,2812.782580,-5773.606348,-77375.645298
8912.915268,-2516.700203,-4441.235652,-75383.797003
8912.917840,-444.123565,-6661.853478,-79061.055394
8912.920411,-1924.535449,-5477.523971,-76303.111601
8912.922982,-8882.471304,-3997.112087,-76149.892501
8912.925553,-1332.370696,-592.164754,-77835.302597
8912.928125,-2960.823768,-888.247130,-78141.740796
8912.930696,3552.988522,-2220.617826,-75230.577904
8912.933267,-3849.070898,-3552.988522,-75383.797003
8912.935838,-2220.617826,1036.288319,-78294.959896
8912.938410,4589.276840,-2368.659014,-76609.549800
8912.940981,888.247130,-5921.647536,-76149.892501
8912.943552,-1924.535449,-1480.411884,-77682.083497
8912.946123,2072.576638,-7698.141797,-77375.645298
8912.948694,-3701.029710,-3701.029710,-76762.768900
8912.951266,-11103.089130,-5181.441594,-78294.959896
8912.953837,-3552.988522,-3552.988522,-78754.617194
8912.956408,-2072.576638,-5921.647536,-76303.111601
8912.958979,-6513.812290,-3404.947333,-75537.016103
8912.961551,1332.370696,148.041188,-77682.083497
8912.964122,2368.659014,-6217.729913,-77222.426198
8912.966693,-7105.977043,444.123565,-75383.797003
8912.969264,-3701.029710,-4293.194464,-79214.274493
8912.971836,2368.659014,-7402.059420,-79214.274493
8912.974407,4589.276840,-4145.153275,-77069.207099
8912.976978,-8882.471304,-2664.741391,-77069.207099
8912.979549,5329.482782,-1924.535449,-78907.836294
8912.982120,1480.411884,2664.741391,-76762.768900
8912.984692,-2516.700203,7698.141797,-77682.083497
8912.987263,2960.823768,2960.823768,-79367.493593
8912.989834,4145.153275,3552.988522,-76609.549800
8912.992405,3108.864956,2368.659014,-77682.083497
8912.994977,296.082377,-592.164754,-77835.302597
8912.997548,4293.194464,-4885.359217,-77988.521696
8913.000119,-1036.288319,-2812.782580,-75996.673402
8913.002690,-2664.741391,888.247130,-78141.740796
8913.005262,8438.347739,740.205942,-78141.740796
8913.007833,2664.741391,2960.823768,-75383.797003
8913.010374,1480.411884,3108.864956,-78448.178995
8913.012916,4885.359217,2220.617826,-78141.740796
8913.015458,-2220.617826,3701.029710,-75996.673402
8913.017999,-3552.988522,-3108.864956,-76149.892501
8913.020541,3256.906145,-1332.370696,-78294.959896
8913.023083,5477.523971,-296.082377,-75230.577904
8913.025624,-2516.700203,-2664.741391,-76456.330700
8913.028166,-2368.659014,3552.988522,-78448.178995
8913.030708,4737.318029,-5625.565159,-76456.330700
8913.033250,1480.411884,1036.288319,-76303.111601
8913.035791,-3108.864956,3108.864956,-77069.207099
8913.038333,9474.636058,444.123565,-79061.055394
8913.040875,4589.276840,1480.411884,-79214.274493
8913.043416,2220.617826,5773.606348,-75996.673402
8913.045958,8438.347739,0.000000,-78141.740796
8913.048500,7402.059420,2368.659014,-76762.768900
8913.051041,-1776.494261,2220.617826,-76609.549800
8913.053583,1628.453072,444.123565,-79214.274493
8913.056125,-444.123565,-1776.494261,-76149.892501
8913.058666,-1776.494261,-1628.453072,-75690.235202
8913.061208,7254.018232,3256.906145,-79980.369991
8913.063750,10362.883188,2368.659014,-79214.274493
8913.066291,2220.617826,3997.112087,-76303.111601
8913.068833,-4441.235652,2812.782580,-77528.864398
8913.071375,-9622.677246,-2072.576638,-78448.178995
8913.073916,-8882.471304,-4737.318029,-75230.577904
8913.076458,-7698.141797,-5033.400406,-77222.426198
8913.079000,9178.553681,-7846.182985,-78448.178995
8913.081541,3256.906145,-8586.388927,-77835.302597
8913.084083,-3552.988522,-3701.029710,-76149.892501
8913.086625,-9770.718434,-740.205942,-78448.178995
8913.089166,-2960.823768,592.164754,-78294.959896
8913.091708,-7402.059420,-296.082377,-76609.549800
8913.094250,-2220.617826,-1036.288319,-78141.740796
8913.096791,5625.565159,-2812.782580,-77835.302597
8913.099333,-592.164754,-7105.977043,-76303.111601
8913.101875,-8290.306550,-5329.482782,-77069.207099
8913.104417,0.000000,-5921.647536,-78754.617194
8913.106958,-3552.988522,-4293.194464,-76762.768900
8913.109500,-1628.453072,592.164754,-75230.577904
8913.112047,-888.247130,-296.082377,-79061.055394
8913.114593,3552.988522,-2220.617826,-75690.235202
8913.117140,-4145.153275,-4885.359217,-77222.426198
8913.119687,-5921.647536,3849.070898,-75843.454302
8913.122234,5773.606348,-5033.400406,-77682.083497
8913.124780,-5181.441594,-4589.276840,-76915.987999
8913.127327,-1776.494261,-3701.029710,-77682.083497
8913.129874,1628.453072,-6513.812290,-77682.083497
8913.132421,-2960.823768,-3404.947333,-77375.645298
8913.134967,-13915.871710,-5181.441594,-77682.083497
8913.137514,-888.247130,-3701.029710,-78601.398095
8913.140061,-3108.864956,-5329.482782,-76762.768900
8913.142608,-2220.617826,-740.205942,-74158.044206
8913.145154,-888.247130,-1628.453072,-79214.274493
8913.147701,592.164754,-3404.947333,-77069.207099
8913.150248,-12139.377449,-4293.194464,-76303.111601
8913.152795,1480.411884,-1628.453072,-77835.302597
8913.155341,4145.153275,-7402.059420,-80133.589091
8913.157888,444.123565,-3256.906145,-77222.426198
8913.160435,-2960.823768,592.164754,-77222.426198
8913.162982,6957.935855,1628.453072,-78294.959896
8913.165528,-740.205942,4145.153275,-77222.426198
8913.168075,-3552.988522,7254.018232,-77069.207099
8913.170622,6069.688724,4145.153275,-79367.493593
8913.173169,9622.677246,740.205942,-77528.864398
8913.175715,-296.082377,-1184.329507,-75230.577904
8913.178262,-1628.453072,-2516.700203,-78907.836294
8913.180809,4885.359217,-2516.700203,-77988.521696
8913.183356,-1184.329507,1036.288319,-76149.892501
8913.185902,-1036.288319,1924.535449,-77375.645298
8913.188449,11695.253884,592.164754,-77682.083497
8913.190996,4145.153275,1776.494261,-75383.797003
8913.193547,-2072.576638,4441.235652,-77069.207099
8913.196098,1332.370696,2664.741391,-79673.931792
8913.198649,740.205942,4885.359217,-77682.083497
8913.201199,-1924.535449,-6661.853478,-77222.426198
8913.203750,2664.741391,4737.318029,-78141.740796
8913.206301,4293.194464,-2368.659014,-76762.768900
8913.208852,-2516.700203,-3256.906145,-75537.016103
8913.211403,4589.276840,740.205942,-77835.302597
8913.213954,3997.112087,0.000000,-77682.083497
8913.216505,592.164754,2516.700203,-77835.302597
8913.219055,-740.205942,1776.494261,-78601.398095
8913.221606,9474.636058,888.247130,-77835.302597
8913.224157,5477.523971,0.000000,-76762.768900
8913.226708,3552.988522,3404.947333,-75383.797003
8913.229259,2664.741391,3404.947333,-78754.617194
8913.231810,3108.864956,-1628.453072,-77528.864398
8913.234361,-6661.853478,-1480.411884,-75383.797003
8913.236912,6217.729913,1184.329507,-77835.302597
8913.239462,7254.018232,592.164754,-77375.645298
8913.242013,1036.288319,2664.741391,-77222.426198
8913.244564,3552.988522,2368.659014,-78141.740796
8913.247115,296.082377,1332.370696,-79061.055394
8913.249666,-13619.789333,-4293.194464,-76762.768900
8913.252217,-12139.377449,-3108.864956,-76149.892501
8913.254768,2812.782580,-7994.224174,-78294.959896
8913.257318,7254.018232,-7105.977043,-76303.111601
8913.259869,-3552.988522,-6217.729913,-76303.111601
8913.262420,1628.453072,-5773.606348,-78601.398095
8913.264971,-6217.729913,-592.164754,-77528.864398
8913.267522,-11399.171507,1480.411884,-75843.454302
8913.270073,-5625.565159,148.041188,-78448.178995
8913.272624,5477.523971,-3552.988522,-78294.959896
8913.275174,1184.329507,-3701.029710,-76456.330700
8913.277725,-6365.771101,-4885.359217,-77682.083497
8913.280276,1776.494261,-7105.977043,-77835.302597
8913.282827,-1628.453072,-5921.647536,-76456.330700
8913.285378,-6957.935855,-1036.288319,-78907.836294
8913.287929,1332.370696,740.205942,-78448.178995
8913.290480,1924.535449,-148.041188,-77528.864398
8913.293031,-3997.112087,-5033.400406,-75077.358804
8913.295585,-2960.823768,888.247130,-77682.083497
8913.298140,3849.070898,-4145.153275,-77835.302597
8913.300695,-2960.823768,-3404.947333,-76456.330700
8913.303249,-2516.700203,-5033.400406,-79214.274493
8913.305804,2072.576638,-7846.182985,-77682.083497
8913.308359,-7105.977043,-4885.359217,-73851.606007
8913.310913,-13175.665768,-1776.494261,-78294.959896
8913.313468,-1776.494261,-6957.935855,-79673.931792
8913.316023,-444.123565,-5773.606348,-77375.645298
8913.318577,-4293.194464,-1480.411884,-74770.920605
8913.321132,3997.112087,-2664.741391,-77375.645298
8913.323687,-2072.576638,-5477.523971,-77375.645298
8913.326242,-9474.636058,-2812.782580,-75077.358804
8913.328796,1036.288319,-3108.864956,-78754.617194
8913.331351,2072.576638,-2220.617826,-77375.645298
8913.333906,-4737.318029,-4145.153275,-75996.673402
8913.336460,740.205942,1332.370696,-76915.987999
8913.339015,3997.112087,6217.729913,-77835.302597
8913.341570,2516.700203,1924.535449,-77835.302597
8913.344124,1036.288319,2664.741391,-77069.207099
8913.346679,2072.576638,3256.906145,-78601.398095
8913.349234,12583.501014,740.205942,-77528.864398
8913.351788,-296.082377,-444.123565,-75690.235202
8913.354343,-1480.411884,-2072.576638,-78754.617194
8913.356898,3701.029710,-1776.494261,-79061.055394
8913.359453,-1480.411884,3404.947333,-74924.139704
8913.362007,1628.453072,2220.617826,-75843.454302
8913.364562,6217.729913,1332.370696,-78907.836294
8913.367117,5773.606348,2516.700203,-75690.235202
8913.369671,-3108.864956,1184.329507,-75843.454302
8913.372226,444.123565,1332.370696,-78754.617194
8913.374781,4293.194464,-3849.070898,-77528.864398
8913.377335,0.000000,-3701.029710,-75537.016103
8913.379890,1628.453072,592.164754,-77222.426198
8913.382445,3404.947333,148.041188,-76149.892501
8913.385000,2368.659014,1036.288319,-76149.892501
8913.387554,-4441.235652,1036.288319,-78294.959896
8913.390109,6957.935855,5329.482782,-78601.398095
8913.392664,3849.070898,2072.576638,-76762.768900
8913.395218,2664.741391,3256.906145,-77835.302597
8913.397747,8586.388927,148.041188,-79061.055394
8913.400276,7254.018232,1480.411884,-74311.263306
8913.402805,-3108.864956,2664.741391,-75077.358804
8913.405333,296.082377,296.082377,-78601.398095
8913.407862,8142.265362,-888.247130,-77682.083497
8913.410391,5329.482782,1924.535449,-76149.892501
8913.412920,444.123565,2960.823768,-77682.083497
8913.415448,9326.594869,-148.041188,-80286.808190
8913.417977,2220.617826,5921.647536,-75537.016103
8913.420506,-15396.283594,296.082377,-77528.864398
8913.423035,-9030.512492,-5181.441594,-78907.836294
8913.425563,-3552.988522,-7846.182985,-75843.454302
8913.428092,296.082377,-6069.688724,-76915.987999
8913.430621,148.041188,-6217.729913,-77375.645298
8913.433150,5773.606348,-7402.059420,-78141.740796
8913.435678,-9474.636058,-1776.494261,-77069.207099
8913.438207,-9770.718434,1184.329507,-78294.959896
8913.440736,-1184.329507,444.123565,-77988.521696
8913.443265,-2072.576638,-1332.370696,-75843.454302
8913.445794,444.123565,-3552.988522,-79061.055394
8913.448322,4145.153275,-5625.565159,-77835.302597
8913.450851,-3701.029710,-6661.853478,-75077.358804
8913.453380,-10658.965565,-4885.359217,-76303.111601
8913.455909,-2812.782580,-1480.411884,-78907.836294
8913.458437,5329.482782,296.082377,-77222.426198
8913.460966,-4885.359217,-4145.153275,-76456.330700
8913.463495,-1776.494261,1776.494261,-77069.207099
8913.466024,5625.565159,-5773.606348,-76609.549800
8913.468552,-5921.647536,-1776.494261,-75537.016103
8913.471081,0.000000,-3404.947333,-78601.398095
8913.473610,740.205942,-5181.441594,-77988.521696
8913.476139,-296.082377,-6365.771101,-77222.426198
8913.478667,-13175.665768,-4589.276840,-75996.673402
8913.481196,-4145.153275,-2516.700203,-76762.768900
8913.483725,-3997.112087,-5773.606348,-79367.493593
8913.486254,-4737.318029,-1332.370696,-77222.426198
8913.488782,1184.329507,-2516.700203,-78448.178995
8913.491311,740.205942,-3997.112087,-75077.358804
8913.493840,-10658.965565,-5329.482782,-74924.139704
8913.496369,1036.288319,-3108.864956,-79061.055394
8913.498905,3701.029710,-3108.864956,-77988.521696
8913.501442,-592.164754,-1776.494261,-77375.645298
8913.503979,-2516.700203,0.000000,-76456.330700
8913.506516,8882.471304,1480.411884,-78601.398095
8913.509052,444.123565,6365.771101,-75996.673402
8913.511589,-5625.565159,5181.441594,-77222.426198
8913.514126,5477.523971,4885.359217,-80286.808190
8913.516663,9030.512492,2072.576638,-77528.864398
8913.519199,2812.782580,-592.164754,-74770.920605
8913.521736,-1628.453072,-1628.453072,-77988.521696
8913.524273,4441.235652,-2220.617826,-78141.740796
8913.526809,-1332.370696,-888.247130,-76149.892501
8913.529346,-2812.782580,4589.276840,-77682.083497
8913.531883,9474.636058,-1036.288319,-79061.055394
8913.534420,4441.235652,3552.988522,-76915.987999
8913.536956,1776.494261,3404.947333,-77682.083497
8913.539493,3701.029710,1036.288319,-77835.302597
8913.542030,1628.453072,-740.205942,-77069.207099
8913.544567,-2960.823768,-3849.070898,-77682.083497
8913.547103,-1036.288319,1184.329507,-77682.083497
8913.549640,6069.688724,-2960.823768,-77375.645298
8913.552177,-3997.112087,-1184.329507,-74617.701505
8913.554713,1628.453072,2664.741391,-77835.302597
8913.557250,5625.565159,1924.535449,-78601.398095
8913.559787,592.164754,3108.864956,-75690.235202
8913.562324,3997.112087,4145.153275,-78294.959896
8913.564860,10362.883188,888.247130,-78294.959896
8913.567397,3849.070898,-1628.453072,-76456.330700
8913.569934,-3997.112087,2664.741391,-74770.920605
8913.572471,-888.247130,-2368.659014,-79673.931792
8913.575007,6957.935855,2516.700203,-77069.207099
8913.577544,592.164754,2220.617826,-76149.892501
8913.580081,7846.182985,4885.359217,-77988.521696
8913.582617,4589.276840,740.205942,-76303.111601
8913.585154,-2960.823768,3256.906145,-76456.330700
8913.587691,-21169.889941,-2516.700203,-77835.302597
8913.590228,-3256.906145,-6069.688724,-77988.521696
8913.592764,1480.411884,-8142.265362,-76609.549800
8913.595301,444.123565,-6661.853478,-78141.740796
8913.597838,7254.018232,-8586.388927,-79061.055394
8913.600381,-1184.329507,-3552.988522,-75230.577904
8913.602925,-10362.883188,-2072.576638,-76915.987999
8913.605469,-5921.647536,3108.864956,-79367.493593
8913.608012,-4589.276840,-1480.411884,-76915.987999
8913.610556,0.000000,-4589.276840,-76456.330700
8913.613100,-2072.576638,-2664.741391,-77682.083497
8913.615643,4737.318029,-9030.512492,-77222.426198
8913.618187,-9030.512492,-6513.812290,-76149.892501
8913.620731,-6365.771101,-4145.153275,-78754.617194
8913.623274,2664.741391,-1036.288319,-80746.465489
8913.625818,888.247130,1036.288319,-75996.673402
8913.628362,-3552.988522,-5033.400406,-78294.959896
8913.630905,3849.070898,888.247130,-77375.645298
8913.633449,1036.288319,-4737.318029,-76456.330700
8913.635993,-6957.935855,-4737.318029,-75996.673402
8913.638536,-888.247130,-3552.988522,-78294.959896
8913.641080,0.000000,-9622.677246,-77528.864398
8913.643624,-8586.388927,-5773.606348,-76149.892501
8913.646167,-10362.883188,-5625.565159,-76915.987999
8913.648711,-592.164754,-3108.864956,-77835.302597
8913.651255,-4737.318029,-3108.864956,-77682.083497
8913.653798,-2368.659014,-1036.288319,-79061.055394
8913.656342,-1332.370696,-3256.906145,-78141.740796
8913.658886,-3997.112087,-5921.647536,-75077.358804
8913.661429,-6661.853478,-6069.688724,-75996.673402
8913.663973,1036.288319,0.000000,-77682.083497
8913.666517,-1184.329507,-4737.318029,-78141.740796
8913.669060,740.205942,1332.370696,-75996.673402
8913.671604,4885.359217,2812.782580,-78907.836294
8913.674148,5477.523971,4293.194464,-77069.207099
8913.676691,-5773.606348,3404.947333,-75537.016103
8913.679235,5477.523971,5773.606348,-77528.864398
8913.681779,8734.430116,2664.741391,-78754.617194
8913.684322,6661.853478,1036.288319,-75077.358804
8913.686866,-3552.988522,-4293.194464,-77375.645298
8913.689410,4589.276840,-592.164754,-78907.836294
8913.691953,592.164754,-1776.494261,-78141.740796
8913.694497,-1628.453072,2812.782580,-76609.549800
8913.697041,5477.523971,2664.741391,-78141.740796
8913.699584,8290.306550,3997.112087,-77069.207099
8913.702139,-740.205942,2368.659014,-76609.549800
8913.704688,-2664.741391,148.041188,-77222.426198
8913.707237,4293.194464,-3849.070898,-78448.178995
8913.709786,1480.411884,-444.123565,-76762.768900
8913.712335,-2072.576638,-148.041188,-77682.083497
8913.714884,4145.153275,444.123565,-78907.836294
8913.717433,-148.041188,2220.617826,-76762.768900
8913.719982,-5921.647536,3108.864956,-76915.987999
8913.722531,8290.306550,4737.318029,-78141.740796
8913.725080,11399.171507,1628.453072,-77682.083497
8913.727629,5477.523971,2664.741391,-75230.577904
8913.730178,3552.988522,-1332.370696,-78294.959896
8913.732727,7402.059420,-2812.782580,-76149.892501
8913.735276,-6069.688724,-1332.370696,-76456.330700
8913.737825,1036.288319,2516.700203,-78754.617194
8913.740374,8734.430116,1924.535449,-79827.150892
8913.742923,4589.276840,3849.070898,-75077.358804
8913.745472,-296.082377,4293.194464,-77988.521696
8913.748021,-296.082377,5477.523971,-78294.959896
8913.750570,-13027.624579,-7846.182985,-77069.207099
8913.753119,-11991.336260,-5477.523971,-75383.797003
8913.755668,-2516.700203,-7846.182985,-78141.740796
8913.758217,8438.347739,-8882.471304,-78294.959896
8913.760766,0.000000,-6365.771101,-75843.454302
8913.763315,-7402.059420,-2220.617826,-77375.645298
8913.765864,-5181.441594,296.082377,-78907.836294
8913.768412,-5921.647536,2220.617826,-76303.111601
8913.770961,-3701.029710,-1184.329507,-76303.111601
8913.773510,-444.123565,-2516.700203,-78448.178995
8913.776059,7846.182985,-6809.894666,-77835.302597
8913.778608,-5181.441594,-10510.924376,-75843.454302
8913.781157,-9326.594869,-3849.070898,-78294.959896
8913.783706,-888.247130,-3997.112087,-79673.931792
8913.786255,-1184.329507,-1332.370696,-76456.330700
8913.788804,-740.205942,-888.247130,-77069.207099
8913.791353,2664.741391,-1332.370696,-77069.207099
8913.793902,1036.288319,-3404.947333,-74924.139704
8913.796451,-7402.059420,-4737.318029,-76456.330700
8913.799000,444.123565,-4441.235652,-78907.836294
8913.801549,-1332.370696,-9918.759623,-78601.398095
8913.804103,-8882.471304,-5329.482782,-73085.510509
8913.806656,-8290.306550,-6365.771101,-77988.521696
8913.809210,-1184.329507,-1184.329507,-75230.577904
8913.811763,-9474.636058,-2960.823768,-76609.549800
8913.814317,1480.411884,-148.041188,-79367.493593
8913.816870,-2516.700203,-6217.729913,-79367.493593
8913.819424,-592.164754,-5033.400406,-75077.358804
8913.821977,-5625.565159,-5625.565159,-76149.892501
8913.824531,3108.864956,-3552.988522,-79980.369991
8913.827084,-2516.700203,-3108.864956,-77375.645298
8913.829638,888.247130,3701.029710,-76149.892501
8913.832191,4441.235652,2368.659014,-79673.931792
8913.834745,3108.864956,6069.688724,-75843.454302
8913.837298,-4737.318029,4737.318029,-76303.111601
8913.839852,3552.988522,4293.194464,-76456.330700
8913.842405,11991.336260,4293.194464,-78907.836294
8913.844959,1480.411884,148.041188,-76609.549800
8913.847512,-3849.070898,-4737.318029,-78754.617194
8913.850066,4589.276840,-1628.453072,-78294.959896
8913.852619,2072.576638,-2220.617826,-76609.549800
8913.855173,-1480.411884,3701.029710,-77528.864398
8913.857726,5921.647536,3108.864956,-78448.178995
8913.860280,2664.741391,5625.565159,-77222.426198
8913.862833,-2072.576638,1332.370696,-76149.892501
8913.865387,-592.164754,-740.205942,-77835.302597
8913.867940,2812.782580,-3849.070898,-77988.521696
8913.870494,1036.288319,-1628.453072,-76762.768900
8913.873047,-7698.141797,0.000000,-78907.836294
8913.875601,8438.347739,740.205942,-77222.426198
8913.878154,-2960.823768,888.247130,-73851.606007
8913.880708,2960.823768,5921.647536,-77988.521696
8913.883261,10066.800811,3849.070898,-79520.712692
8913.885815,12583.501014,3404.947333,-77528.864398
8913.888368,-1776.494261,-2368.659014,-76762.768900
8913.890922,5625.565159,-148.041188,-77222.426198
8913.893475,888.247130,-4441.235652,-75843.454302
8913.896029,-1036.288319,148.041188,-75383.797003
8913.898582,4293.194464,3552.988522,-78601.398095
8913.901136,10807.006753,2812.782580,-77682.083497
8913.903689,444.123565,4293.194464,-75843.454302
8913.906247,-1480.411884,7402.059420,-76303.111601
8913.908804,-10362.883188,-6809.894666,-79673.931792
8913.911362,-6513.812290,-6069.688724,-76915.987999
8913.913919,-3552.988522,-9474.636058,-76609.549800
8913.916477,6661.853478,-7994.224174,-78448.178995
8913.919034,2220.617826,-9178.553681,-77222.426198
8913.921592,-4737.318029,-7254.018232,-76456.330700
8913.924149,-5921.647536,592.164754,-77528.864398
8913.926707,-5773.606348,2368.659014,-75996.673402
8913.929264,-9474.636058,1480.411884,-76609.549800
8913.931822,-3701.029710,-1332.370696,-79367.493593
8913.934379,7550.100608,-6217.729913,-79214.274493
8913.936937,-1036.288319,-6809.894666,-75077.358804
8913.939494,-11991.336260,-6217.729913,-77528.864398
8913.942052,-2220.617826,-3404.947333,-79827.150892
8913.944609,-1184.329507,-740.205942,-77222.426198
8913.947167,148.041188,3404.947333,-75230.577904
8913.949724,-1036.288319,-2812.782580,-79214.274493
8913.952282,3256.906145,-1480.411884,-76915.987999
8913.954840,-4145.153275,-7402.059420,-77835.302597
8913.957397,-6513.812290,-2812.782580,-77835.302597
8913.959955,2516.700203,-8882.471304,-78448.178995
8913.962512,-10214.842000,-7846.182985,-76915.987999
8913.965070,-9326.594869,-5181.441594,-78448.178995
8913.967627,1332.370696,-3997.112087,-76609.549800
8913.970185,-5033.400406,0.000000,-75690.235202
8913.972742,-4145.153275,148.041188,-79520.712692
8913.975300,1776.494261,-3256.906145,-78141.740796
8913.977857,-888.247130,-5477.523971,-76609.549800
8913.980415,-2220.617826,-5477.523971,-75996.673402
8913.982972,-5625.565159,-5921.647536,-79827.150892
8913.985530,6069.688724,-3404.947333,-76762.768900
8913.988087,-444.123565,2516.700203,-76609.549800
8913.990645,2664.741391,8586.388927,-78141.740796
8913.993202,4145.153275,3404.947333,-77988.521696
8913.995760,-740.205942,5921.647536,-75230.577904
8913.998317,4441.235652,5329.482782,-76762.768900
8914.000875,11399.171507,1628.453072,-78754.617194
8914.003432,888.247130,-3552.988522,-76762.768900
8914.005990,-740.205942,-2960.823768,-76762.768900
8914.008550,1332.370696,-2368.659014,-78754.617194
8914.011110,4589.276840,-296.082377,-76303.111601
8914.013670,-2516.700203,2072.576638,-76456.330700
8914.016230,3256.906145,8290.306550,-78294.959896
8914.018790,3997.112087,3849.070898,-76915.987999
8914.021350,-2664.741391,148.041188,-76149.892501
8914.023910,-4293.194464,-296.082377,-77835.302597
8914.026470,8586.388927,-2516.700203,-79367.493593
8914.029029,-592.164754,-1332.370696,-79367.493593
8914.031589,-3701.029710,3404.947333,-76303.111601
8914.034149,2516.700203,148.041188,-78754.617194
8914.036709,4589.276840,7254.018232,-76915.987999
8914.039269,1332.370696,5773.606348,-77835.302597
8914.041829,13767.830521,4885.359217,-77682.083497
8914.044389,4293.194464,-296.082377,-77835.302597
8914.046949,-592.164754,-1776.494261,-74924.139704
8914.049509,-2812.782580,-3552.988522,-77988.521696
8914.052069,8734.430116,-148.041188,-77835.302597
8914.054629,1924.535449,1332.370696,-76915.987999
8914.057189,2072.576638,3552.988522,-78294.959896
8914.059749,9770.718434,4441.235652,-77835.302597
8914.062309,-5329.482782,5921.647536,-75230.577904
8914.064869,-18653.189738,-3849.070898,-79214.274493
8914.067429,-2664.741391,-7698.141797,-78601.398095
8914.069989,4885.359217,-12287.418637,-77375.645298
8914.072549,-148.041188,-10955.047942,-75843.454302
8914.075109,2664.741391,-5773.606348,-78141.740796
8914.077669,-740.205942,-6365.771101,-77682.083497
8914.080229,-13767.830521,0.000000,-75843.454302
8914.082789,-6957.935855,3997.112087,-77835.302597
8914.085349,0.000000,-444.123565,-77069.207099
8914.087909,740.205942,-1776.494261,-75843.454302
8914.090469,-5033.400406,-5477.523971,-77375.645298
8914.093029,2516.700203,-6957.935855,-77375.645298
8914.095589,-1480.411884,-11399.171507,-77375.645298
8914.098149,-9178.553681,-444.123565,-77222.426198
8914.100708,592.164754,-148.041188,-78754.617194
8914.103268,3701.029710,-740.205942,-75996.673402
8914.105828,-2812.782580,740.205942,-76609.549800
8914.108388,-3108.864956,-4737.318029,-78294.959896
8914.110951,1628.453072,-3997.112087,-76456.330700
8914.113513,-7105.977043,-8290.306550,-78141.740796
8914.116075,-8142.265362,-6513.812290,-77682.083497
8914.118637,-3108.864956,-9474.636058,-78448.178995
8914.121200,-1776.494261,-4441.235652,-74924.139704
8914.123762,-9326.594869,-888.247130,-78141.740796
8914.126324,1628.453072,-296.082377,-78754.617194
8914.128887,-4589.276840,-2664.741391,-77069.207099
8914.131449,-4737.318029,-296.082377,-77069.207099
8914.134011,4293.194464,-6513.812290,-79214.274493
8914.136573,1184.329507,-7550.100608,-79061.055394
8914.139136,-2960.823768,-3108.864956,-75383.797003
8914.141698,2220.617826,2516.700203,-78448.178995
8914.144260,7994.224174,5477.523971,-77222.426198
8914.146822,-3256.906145,4589.276840,-77222.426198
8914.149385,2960.823768,6661.853478,-78907.836294
8914.151947,10362.883188,5033.400406,-78448.178995
8914.154509,4737.318029,5329.482782,-74464.482406
8914.157072,-3552.988522,-1628.453072,-78141.740796
8914.159634,3552.988522,-1184.329507,-78141.740796
8914.162196,296.082377,-6809.894666,-77528.864398
8914.164758,-148.041188,-888.247130,-74770.920605
8914.167321,3108.864956,2812.782580,-78294.959896
8914.169883,9770.718434,1924.535449,-76915.987999
8914.172445,-1924.535449,3997.112087,-77528.864398
8914.175008,-2072.576638,3108.864956,-76456.330700
8914.177570,2516.700203,-2368.659014,-77988.521696
8914.180132,3849.070898,592.164754,-77069.207099
8914.182694,-5329.482782,-592.164754,-77988.521696
8914.185257,148.041188,1776.494261,-78141.740796
8914.187819,7254.018232,2072.576638,-77375.645298
8914.190381,1480.411884,5181.441594,-74770.920605
8914.192943,8290.306550,4885.359217,-79367.493593
8914.195506,12583.501014,2516.700203,-78141.740796
8914.198068,-2072.576638,296.082377,-75996.673402
8914.200630,-1776.494261,-3552.988522,-79061.055394
8914.203193,8142.265362,-1776.494261,-78141.740796
8914.205755,2220.617826,1628.453072,-75843.454302
8914.208317,2072.576638,3108.864956,-76149.892501
8914.210879,8734.430116,4885.359217,-79061.055394
8914.213444,-1036.288319,2368.659014,-76609.549800
8914.216008,-19689.478057,-3404.947333,-74924.139704
8914.218573,-8142.265362,-3552.988522,-77375.645298
8914.221137,1776.494261,-12731.542202,-78141.740796
8914.223701,444.123565,-9326.594869,-75843.454302
8914.226266,2368.659014,-7698.141797,-78754.617194
8914.228830,3108.864956,-7846.182985,-77375.645298
8914.231395,-6365.771101,-1332.370696,-76609.549800
8914.233959,-13915.871710,5477.523971,-75843.454302
8914.236524,-148.041188,-2516.700203,-79980.369991
8914.239088,3701.029710,444.123565,-76609.549800
8914.241652,-2220.617826,-5181.441594,-77375.645298
8914.244217,-592.164754,-3997.112087,-79214.274493
8914.246781,-5773.606348,-9326.594869,-76915.987999
8914.249346,-5773.606348,-4441.235652,-77069.207099
8914.251910,1036.288319,0.000000,-78754.617194
8914.254475,3404.947333,444.123565,-77069.207099
8914.257039,-740.205942,-1036.288319,-74617.701505
8914.259603,-5625.565159,-5625.565159,-77835.302597
8914.262168,2812.782580,-4145.153275,-78448.178995
8914.264732,-8438.347739,-7994.224174,-77682.083497
8914.267297,-9770.718434,-5181.441594,-77682.083497
8914.269861,-2516.700203,-7846.182985,-78754.617194
8914.272426,-888.247130,-4441.235652,-77069.207099
8914.274990,-6809.894666,-2072.576638,-75383.797003
8914.277554,-4737.318029,1776.494261,-78294.959896
8914.280119,1776.494261,-6217.729913,-78601.398095
8914.282683,-1184.329507,-3108.864956,-75077.358804
8914.285248,-3108.864956,-2812.782580,-77069.207099
8914.287812,2516.700203,-5921.647536,-78448.178995
8914.290377,296.082377,-444.123565,-76456.330700
8914.292941,1184.329507,3108.864956,-79673.931792
8914.295478,5181.441594,5773.606348,-77682.083497
8914.298016,4737.318029,4589.276840,-76609.549800
8914.300553,2220.617826,5773.606348,-76303.111601
8914.303090,7846.182985,6661.853478,-77835.302597
8914.305628,4885.359217,-296.082377,-76456.330700
8914.308165,-3256.906145,-3404.947333,-76762.768900
8914.310702,2960.823768,-2368.659014,-79367.493593
8914.313240,2812.782580,-3108.864956,-76762.768900
8914.315777,-1332.370696,296.082377,-75843.454302
8914.318314,8734.430116,1184.329507,-77988.521696
8914.320852,4145.153275,1332.370696,-79827.150892
8914.323389,740.205942,5477.523971,-76609.549800
8914.325926,-4589.276840,1776.494261,-76609.549800
8914.328464,3552.988522,-3404.947333,-79827.150892
8914.331001,3701.029710,1184.329507,-76456.330700
8914.333538,-3849.070898,-740.205942,-77835.302597
8914.336076,3701.029710,3108.864956,-78448.178995
8914.338613,5773.606348,3108.864956,-77528.864398
8914.341150,2516.700203,6809.894666,-77528.864398
8914.343688,10955.047942,4737.318029,-78448.178995
8914.346225,6513.812290,296.082377,-77375.645298
8914.348762,1332.370696,-2812.782580,-76609.549800
8914.351299,-1628.453072,296.082377,-78141.740796
8914.353837,6809.894666,-592.164754,-78294.959896
8914.356374,3552.988522,2960.823768,-76762.768900
8914.358911,1776.494261,4441.235652,-77528.864398
8914.361449,5033.400406,3256.906145,-79214.274493
8914.363986,-14359.995275,-1480.411884,-76303.111601
8914.366523,-13619.789333,-6661.853478,-75996.673402
8914.369061,148.041188,-7402.059420,-79520.712692
8914.371598,5921.647536,-10362.883188,-77528.864398
8914.374135,-2812.782580,-9770.718434,-75077.358804
8914.376673,-2664.741391,-6513.812290,-78294.959896
8914.379210,-1184.329507,-2516.700203,-77682.083497
8914.381747,-10955.047942,444.123565,-75230.577904
8914.384285,-5625.565159,1036.288319,-78907.836294
8914.386822,5921.647536,-1924.535449,-78141.740796
8914.389359,-3701.029710,-5773.606348,-78294.959896
8914.391897,-6957.935855,-4293.194464,-76303.111601
8914.394434,-6217.729913,-8438.347739,-78448.178995
8914.396978,296.082377,-1628.453072,-75690.235202
8914.399522,-2516.700203,-4441.235652,-76762.768900
8914.402066,-1480.411884,3404.947333,-78294.959896
8914.404611,4145.153275,-6217.729913,-75996.673402
8914.407155,-9030.512492,-4441.235652,-75230.577904
8914.409699,-2072.576638,-5477.523971,-79061.055394
8914.412243,-3256.906145,-6957.935855,-78907.836294
8914.414787,-8882.471304,-5477.523971,-76762.768900
8914.417332,-7550.100608,-4589.276840,-78601.398095
8914.419876,1924.535449,-4737.318029,-76456.330700
8914.422420,148.041188,-3404.947333,-75383.797003
8914.424964,-9178.553681,-592.164754,-76762.768900
8914.427508,1332.370696,-3997.112087,-80440.027290
8914.430052,1628.453072,-1184.329507,-76915.987999
8914.432597,-9474.636058,-2664.741391,-76303.111601
8914.435141,5477.523971,-2368.659014,-78907.836294
8914.437685,8438.347739,1184.329507,-79214.274493
8914.440229,2368.659014,5625.565159,-76456.330700
8914.442773,-1332.370696,7550.100608,-77375.645298
8914.445318,10510.924376,5477.523971,-78141.740796
8914.447862,5033.400406,3256.906145,-76762.768900
8914.450406,-148.041188,3552.988522,-77375.645298
8914.452950,5921.647536,-3997.112087,-78907.836294
8914.455494,1036.288319,-1036.288319,-77222.426198
8914.458038,-3849.070898,-1628.453072,-75843.454302
8914.460583,5477.523971,1184.329507,-78448.178995
8914.463127,2812.782580,3108.864956,-76609.549800
8914.465671,1480.411884,4293.194464,-75077.358804
8914.468215,-592.164754,1776.494261,-79214.274493
8914.470759,6217.729913,-1036.288319,-75843.454302
8914.473303,-3552.988522,-1480.411884,-76303.111601
8914.475848,-1184.329507,-888.247130,-78141.740796
8914.478392,5773.606348,-296.082377,-78601.398095
8914.480936,2960.823768,3404.947333,-75077.358804
8914.483480,888.247130,3849.070898,-77222.426198
8914.486024,9622.677246,7698.141797,-78601.398095
8914.488569,7254.018232,296.082377,-77222.426198
8914.491113,888.247130,2960.823768,-75383.797003
8914.493657,3404.947333,-740.205942,-77835.302597
8914.496201,6957.935855,-1924.535449,-77988.521696
8914.498751,-3256.906145,888.247130,-75537.016103
8914.501301,4737.318029,740.205942,-78754.617194
8914.503852,7698.141797,5477.523971,-79061.055394
8914.506402,-6217.729913,-740.205942,-77835.302597
8914.508952,-17172.777854,-740.205942,-75996.673402
8914.511502,-2960.823768,-8142.265362,-78754.617194
8914.514052,888.247130,-9030.512492,-76456.330700
8914.516602,-2960.823768,-9474.636058,-77375.645298
8914.519153,5181.441594,-7846.182985,-78294.959896
8914.521703,-2812.782580,-5181.441594,-76762.768900
8914.524253,-8734.430116,-1776.494261,-76456.330700
8914.526803,-10066.800811,1184.329507,-78448.178995
8914.529353,3404.947333,-740.205942,-78448.178995
8914.531904,-296.082377,-2220.617826,-75996.673402
8914.534454,740.205942,-3997.112087,-78294.959896
8914.537004,1480.411884,-9030.512492,-77375.645298
8914.539554,-3552.988522,-5625.565159,-75383.797003
8914.542104,-4737.318029,-1924.535449,-79214.274493
8914.544654,-1924.535449,-4441.235652,-78754.617194
8914.547205,5329.482782,-1628.453072,-75537.016103
8914.549755,-9474.636058,-5773.606348,-75537.016103
8914.552305,-1332.370696,-1480.411884,-77528.864398
8914.554855,-3256.906145,-8882.471304,-77682.083497
8914.557405,-11399.171507,-4145.153275,-74311.263306
8914.559955,-6069.688724,-6069.688724,-78754.617194
8914.562506,2960.823768,-5773.606348,-78448.178995
8914.565056,-5477.523971,-4145.153275,-75996.673402
8914.567606,-5033.400406,-2812.782580,-78141.740796
8914.570156,2960.823768,-4441.235652,-78448.178995
8914.572706,1776.494261,-2812.782580,-77988.521696
8914.575257,-9474.636058,-2220.617826,-76915.987999
8914.577807,3552.988522,296.082377,-78448.178995
8914.580357,5625.565159,-148.041188,-76303.111601
8914.582907,-296.082377,3997.112087,-76303.111601
8914.585457,2664.741391,7105.977043,-77682.083497
8914.588007,10066.800811,4145.153275,-79061.055394
8914.590558,4885.359217,3849.070898,-77528.864398
8914.593108,-1776.494261,4737.318029,-76303.111601
8914.595658,1036.288319,-1628.453072,-77835.302597
8914.598208,4885.359217,-4441.235652,-77528.864398
8914.600763,-2516.700203,-1332.370696,-76609.549800
8914.603317,4145.153275,444.123565,-78448.178995
8914.605872,8142.265362,2812.782580,-77222.426198
8914.608426,-1480.411884,740.205942,-75996.673402
8914.610981,-2960.823768,4293.194464,-77835.302597
8914.613535,5329.482782,-296.082377,-76609.549800
8914.616090,-1628.453072,444.123565,-76609.549800
8914.618644,-2960.823768,1036.288319,-78754.617194
8914.621199,5477.523971,1924.535449,-78754.617194
8914.623753,4589.276840,1184.329507,-75843.454302
8914.626308,0.000000,5033.400406,-74158.044206
8914.628862,10362.883188,5329.482782,-79673.931792
8914.631417,6661.853478,296.082377,-77682.083497
8914.633971,0.000000,-1036.288319,-76456.330700
8914.636526,4589.276840,2664.741391,-78448.178995
8914.639080,3701.029710,-1036.288319,-77069.207099
8914.641635,2812.782580,1332.370696,-77222.426198
8914.644189,-740.205942,4885.359217,-77069.207099
8914.646743,2812.782580,2368.659014,-78448.178995
8914.649298,-10955.047942,-3404.947333,-76762.768900
8914.651852,-13767.830521,-3997.112087,-77069.207099
8914.654407,1332.370696,-8734.430116,-79061.055394
8914.656961,2664.741391,-9474.636058,-76456.330700
8914.659516,-2220.617826,-7550.100608,-76609.549800
8914.662070,1480.411884,-7105.977043,-78448.178995
8914.664625,-1036.288319,-2072.576638,-78448.178995
8914.667179,-10362.883188,888.247130,-75230.577904
8914.669734,-5773.606348,296.082377,-78294.959896
8914.672288,3404.947333,-1776.494261,-77835.302597
8914.674843,-740.205942,-3108.864956,-77528.864398
8914.677397,-5477.523971,-4293.194464,-77069.207099
8914.679952,-888.247130,-9918.759623,-79061.055394
8914.682506,-2516.700203,-1776.494261,-77835.302597
8914.685061,-6513.812290,1480.411884,-77528.864398
8914.687615,1184.329507,-2664.741391,-78754.617194
8914.690170,4145.153275,-3404.947333,-74617.701505
8914.692724,-10214.842000,-7698.141797,-75537.016103
8914.695279,-4885.359217,-3701.029710,-78141.740796
8914.697833,-3997.112087,-7994.224174,-77988.521696
8914.700388,-8586.388927,-4885.359217,-75996.673402
8914.702951,-5329.482782,-5181.441594,-78294.959896
8914.705510,3701.029710,-6069.688724,-77835.302597
8914.708068,-5033.400406,-4441.235652,-75230.577904
8914.710627,-3997.112087,-444.123565,-75690.235202
8914.713185,1184.329507,-888.247130,-78601.398095
8914.715744,-2960.823768,-3108.864956,-77222.426198
8914.718302,-3108.864956,2072.576638,-74004.825107
8914.720860,6365.771101,1036.288319,-79980.369991
8914.723419,6365.771101,4589.276840,-77069.207099
8914.725977,-148.041188,4145.153275,-75537.016103
8914.728536,7105.977043,8142.265362,-78601.398095
8914.731094,5921.647536,2368.659014,-78294.959896
8914.733653,3849.070898,888.247130,-76456.330700
8914.736211,-2516.700203,-1332.370696,-76762.768900
8914.738770,5477.523971,-2072.576638,-77835.302597
8914.741328,2960.823768,-1628.453072,-77069.207099
8914.743886,-1628.453072,2664.741391,-77222.426198
8914.746445,6217.729913,-740.205942,-79214.274493
8914.749003,4737.318029,7105.977043,-75843.454302
8914.751562,-3997.112087,1036.288319,-76303.111601
8914.754120,444.123565,888.247130,-78141.740796
8914.756679,6365.771101,444.123565,-78294.959896
8914.759237,1184.329507,1776.494261,-76915.987999
8914.761796,-1184.329507,1480.411884,-79061.055394
8914.764354,10362.883188,2072.576638,-77835.302597
8914.766912,4589.276840,4293.194464,-75383.797003
8914.769471,2960.823768,4441.235652,-78754.617194
8914.772029,9474.636058,-296.082377,-79673.931792
8914.774588,4441.235652,3404.947333,-76609.549800
8914.777146,-1036.288319,2368.659014,-78754.617194
8914.779705,2812.782580,3108.864956,-78141.740796
8914.782263,5773.606348,2220.617826,-77222.426198
8914.784822,0.000000,1184.329507,-75843.454302
8914.787380,-8734.430116,-592.164754,-77988.521696
8914.789938,-5921.647536,-5921.647536,-77222.426198
8914.792497,-8438.347739,-6513.812290,-76149.892501
8914.795055,-3701.029710,-7402.059420,-78907.836294
8914.797614,6365.771101,-10955.047942,-77835.302597
8914.800172,-1036.288319,-7550.100608,-75843.454302
8914.802731,-7698.141797,-2664.741391,-76609.549800
8914.805263,-4737.318029,-296.082377,-78141.740796
8914.807796,-3552.988522,0.000000,-77222.426198
8914.810328,-6661.853478,-1628.453072,-75996.673402
8914.812861,1184.329507,-1332.370696,-77988.521696
8914.815393,1480.411884,-6661.853478,-75996.673402
8914.817926,-2516.700203,-5181.441594,-73698.386908
8914.820458,-2220.617826,-5181.441594,-80593.246390
8914.822991,0.000000,-1184.329507,-77988.521696
8914.825523,5181.441594,-1184.329507,-77682.083497
8914.828056,-8586.388927,-2072.576638,-76762.768900
8914.830588,2960.823768,-7402.059420,-78141.740796
8914.833121,-4441.235652,-5625.565159,-75843.454302
8914.835653,-12139.377449,-4737.318029,-77222.426198
8914.838186,-5181.441594,-5625.565159,-79061.055394
8914.840719,-1480.411884,-5921.647536,-77069.207099
8914.843251,-6217.729913,-6217.729913,-75843.454302
8914.845784,-2960.823768,-2812.782580,-76149.892501
8914.848316,4441.235652,-4441.235652,-77835.302597
8914.850849,-2072.576638,-740.205942,-77222.426198
8914.853381,-10658.965565,-2220.617826,-78601.398095
8914.855914,7994.224174,-592.164754,-78141.740796
8914.858446,5329.482782,1480.411884,-77222.426198
8914.860979,592.164754,5477.523971,-79061.055394
8914.863511,7994.224174,5625.565159,-77835.302597
8914.866044,4737.318029,4589.276840,-76456.330700
8914.868576,-1924.535449,3552.988522,-76303.111601
8914.871109,444.123565,2368.659014,-78754.617194
8914.873641,5773.606348,-3552.988522,-77682.083497
8914.876174,740.205942,-3256.906145,-75690.235202
8914.878706,1628.453072,2220.617826,-76609.549800
8914.881239,8142.265362,-2960.823768,-78907.836294
8914.883771,-1480.411884,1628.453072,-75077.358804
8914.886304,-444.123565,4737.318029,-79061.055394
8914.888836,6217.729913,888.247130,-77988.521696
8914.891369,2072.576638,-2516.700203,-77375.645298
8914.893902,-2220.617826,2072.576638,-76456.330700
8914.896434,1924.535449,2368.659014,-79827.150892
8914.898967,6365.771101,1924.535449,-75690.235202
8914.901499,296.082377,2220.617826,-75690.235202
8914.904032,10510.924376,4589.276840,-77682.083497
8914.906572,6661.853478,1184.329507,-76915.987999
8914.909113,1628.453072,888.247130,-76149.892501
8914.911653,4737.318029,4293.194464,-79520.712692
8914.914194,5477.523971,148.041188,-80286.808190
8914.916735,1776.494261,2220.617826,-76915.987999
8914.919275,2220.617826,4441.235652,-76303.111601
8914.921816,2368.659014,592.164754,-78907.836294
8914.924356,-11399.171507,-3997.112087,-76609.549800
8914.926897,-14359.995275,-5625.565159,-76762.768900
8914.929438,-592.164754,-7846.182985,-78294.959896
8914.931978,1628.453072,-8142.265362,-77222.426198
8914.934519,-3256.906145,-7402.059420,-77988.521696
8914.937059,-3552.988522,-7254.018232,-77835.302597
8914.939600,148.041188,148.041188,-78141.740796
8914.942141,-9326.594869,-1480.411884,-76762.768900
8914.944681,-7402.059420,0.000000,-77528.864398
8914.947222,5329.482782,-3256.906145,-78601.398095
8914.949762,-888.247130,-1480.411884,-75996.673402
8914.952303,-7402.059420,-9918.759623,-77988.521696
8914.954844,3552.988522,-2220.617826,-77375.645298
8914.957384,0.000000,-4589.276840,-77528.864398
8914.959925,-3849.070898,-1776.494261,-74617.701505
8914.962465,-1036.288319,-1184.329507,-78294.959896
8914.965006,3552.988522,-5625.565159,-76456.330700
8914.967547,-8882.471304,-6809.894666,-75690.235202
8914.970087,-7846.182985,-6069.688724,-78601.398095
8914.972628,-4293.194464,-6957.935855,-78754.617194
8914.975168,-7254.018232,-3997.112087,-75537.016103
8914.977709,-5773.606348,-7550.100608,-79061.055394
8914.980250,4293.194464,-5625.565159,-77682.083497
8914.982790,3701.029710,-4145.153275,-74924.139704
8914.985331,-5329.482782,0.000000,-75996.673402
8914.987871,-5329.482782,-2072.576638,-80746.465489
8914.990412,3552.988522,-296.082377,-77222.426198
8914.992953,148.041188,3256.906145,-75843.454302
8914.995493,6661.853478,6365.771101,-78448.178995
8914.998034,7550.100608,3701.029710,-77835.302597
8915.000574,1924.535449,3997.112087,-76303.111601
8915.003115,-1776.494261,4441.235652,-77682.083497
8915.005656,3404.947333,-740.205942,-79214.274493
8915.008203,5477.523971,-3256.906145,-77222.426198
8915.010751,1184.329507,-3701.029710,-75690.235202
8915.013298,1184.329507,1776.494261,-76762.768900
8915.015846,9326.594869,-2220.617826,-78448.178995
8915.018393,-1184.329507,1184.329507,-75843.454302
8915.020941,-1776.494261,6957.935855,-77222.426198
8915.023488,3701.029710,-2664.741391,-78907.836294
8915.026036,1036.288319,1628.453072,-76456.330700
8915.028584,-2812.782580,-888.247130,-77528.864398
8915.031131,5625.565159,3701.029710,-79520.712692
8915.033679,4145.153275,1480.411884,-76609.549800
8915.036226,2960.823768,1924.535449,-74311.263306
8915.038774,9918.759623,5477.523971,-78754.617194
8915.041321,7846.182985,-1332.370696,-77988.521696
8915.043869,2220.617826,3108.864956,-77069.207099
8915.046416,1628.453072,5181.441594,-78448.178995
8915.048964,5329.482782,0.000000,-78294.959896
8915.051511,3552.988522,1924.535449,-76762.768900
8915.054059,-3849.070898,3997.112087,-76762.768900
8915.056606,-7254.018232,-5477.523971,-78907.836294
8915.059154,-8438.347739,-5033.400406,-75383.797003
8915.061702,-8734.430116,-7846.182985,-76762.768900
8915.064249,1184.329507,-7550.100608,-79214.274493
8915.066797,3552.988522,-10066.800811,-78141.740796
8915.069344,-4441.235652,-5033.400406,-75843.454302
8915.071892,-592.164754,-1924.535449,-77835.302597
8915.074439,-2960.823768,-3256.906145,-77682.083497
8915.076987,-7254.018232,3404.947333,-76149.892501
8915.079534,-6957.935855,-2664.741391,-79214.274493
8915.082082,8290.306550,-4441.235652,-77528.864398
8915.084629,-2220.617826,-6957.935855,-75230.577904
8915.087177,-5329.482782,-3108.864956,-77069.207099
8915.089725,-740.205942,-5033.400406,-81818.999186
8915.092272,1776.494261,-1184.329507,-77682.083497
8915.094820,-4145.153275,-740.205942,-77222.426198
8915.097367,-2516.700203,-1776.494261,-75843.454302
8915.099915,-1036.288319,-9030.512492,-77375.645298
8915.102462,-10658.965565,-6217.729913,-75996.673402
8915.105010,-10066.800811,-7254.018232,-79061.055394
8915.107557,740.205942,-5921.647536,-77682.083497
8915.110082,-7846.182985,-5181.441594,-76456.330700
8915.112606,-2368.659014,-5477.523971,-77835.302597
8915.115130,7105.977043,-6069.688724,-77222.426198
8915.117655,-3552.988522,1332.370696,-74617.701505
8915.120179,-8882.471304,-296.082377,-77222.426198
8915.122703,3849.070898,3404.947333,-80133.589091
8915.125228,7994.224174,4885.359217,-77222.426198
8915.127752,740.205942,3552.988522,-75843.454302
8915.130276,8438.347739,3701.029710,-78754.617194
8915.132801,9178.553681,3701.029710,-76762.768900
8915.135325,-3108.864956,5329.482782,-75230.577904
8915.137849,296.082377,1776.494261,-80286.808190
8915.140374,2960.823768,-3552.988522,-77069.207099
8915.142898,5773.606348,-2812.782580,-76609.549800
8915.145422,444.123565,-296.082377,-76609.549800
8915.147947,7402.059420,148.041188,-78141.740796
8915.150471,3404.947333,5181.441594,-76762.768900
8915.152995,-5477.523971,3108.864956,-75843.454302
8915.155520,2812.782580,740.205942,-78448.178995
8915.158044,1628.453072,-296.082377,-76762.768900
8915.160568,-3701.029710,296.082377,-76762.768900
8915.163093,5181.441594,2664.741391,-78907.836294
8915.165617,8734.430116,2812.782580,-77222.426198
8915.168141,7550.100608,3849.070898,-74924.139704
8915.170666,888.247130,1776.494261,-78448.178995
8915.173190,15396.283594,2516.700203,-78141.740796
8915.175714,3404.947333,3108.864956,-77682.083497
8915.178239,-2220.617826,4737.318029,-78141.740796
8915.180763,2664.741391,-2072.576638,-80746.465489
8915.183287,7994.224174,4589.276840,-75996.673402
8915.185812,-7846.182985,1628.453072,-75996.673402
8915.188336,-9030.512492,-3552.988522,-76915.987999
8915.190860,-4145.153275,-8290.306550,-77988.521696
8915.193385,-5625.565159,-8142.265362,-75996.673402
8915.195909,-5181.441594,-9030.512492,-79061.055394
8915.198433,7846.182985,-8142.265362,-77222.426198
8915.200958,-2220.617826,-7402.059420,-76303.111601
8915.203482,-5921.647536,148.041188,-77375.645298
8915.206006,-5033.400406,-1628.453072,-77835.302597
8915.208531,-3256.906145,148.041188,-76915.987999
8915.211065,-7698.141797,148.041188,-76915.987999
8915.213600,3404.947333,-2220.617826,-77375.645298
8915.216134,1036.288319,-10510.924376,-78141.740796
8915.218669,-5773.606348,-5329.482782,-76149.892501
8915.221203,-3404.947333,-1184.329507,-80593.246390
8915.223737,3404.947333,-2812.782580,-76456.330700
8915.226272,-5181.441594,-5625.565159,-75230.577904
8915.228806,-3849.070898,-4441.235652,-77682.083497
8915.231341,-2220.617826,-5773.606348,-78754.617194
8915.233875,-9178.553681,-7402.059420,-75996.673402
8915.236410,-9030.512492,-3404.947333,-76456.330700
8915.238944,-3108.864956,-7254.018232,-79980.369991
8915.241479,1332.370696,-5329.482782,-76456.330700
8915.244013,-2072.576638,-7105.977043,-76149.892501
8915.246548,-296.082377,2664.741391,-76915.987999
8915.249082,-4589.276840,-5181.441594,-78294.959896
8915.251616,-4293.194464,4293.194464,-75537.016103
8915.254151,5329.482782,8438.347739,-78754.617194
8915.256685,10807.006753,4293.194464,-77069.207099
8915.259220,7698.141797,3552.988522,-75996.673402
8915.261754,2516.700203,5773.606348,-76609.549800
8915.264289,3997.112087,3108.864956,-78601.398095
8915.266823,1332.370696,-592.164754,-77528.864398
8915.269358,-2664.741391,-1480.411884,-78294.959896
8915.271892,6957.935855,-3552.988522,-79673.931792
8915.274426,3552.988522,1036.288319,-74770.920605
8915.276961,-592.164754,-148.041188,-76456.330700
8915.279495,-1332.370696,5625.565159,-79061.055394
8915.282030,3256.906145,-1184.329507,-79061.055394
8915.284564,-888.247130,296.082377,-74004.825107
8915.287099,740.205942,740.205942,-78294.959896
8915.289633,4737.318029,888.247130,-78754.617194
8915.292168,4885.359217,-296.082377,-77682.083497
8915.294702,-592.164754,5329.482782,-77069.207099
8915.297237,14211.954086,3256.906145,-76609.549800
8915.299771,3404.947333,3404.947333,-77988.521696
8915.302305,4737.318029,4293.194464,-76762.768900
8915.304840,4145.153275,2368.659014,-79520.712692
8915.307374,4737.318029,3849.070898,-76915.987999
8915.309909,-2664.741391,-1332.370696,-77222.426198
8915.312452,4441.235652,5625.565159,-77835.302597
8915.314995,-5477.523971,-5773.606348,-77375.645298
8915.317538,-12879.583391,-6365.771101,-74617.701505
8915.320082,-10807.006753,-6661.853478,-77222.426198
8915.322625,4885.359217,-9770.718434,-78907.836294
8915.325168,0.000000,-8142.265362,-77988.521696
8915.327711,-1776.494261,-5477.523971,-76915.987999
8915.330254,-444.123565,-4441.235652,-78601.398095
8915.332798,-5921.647536,1184.329507,-75077.358804
8915.335341,-11843.295072,-1628.453072,-76762.768900
8915.337884,-1480.411884,1184.329507,-78754.617194
8915.340427,2664.741391,-6217.729913,-77988.521696
8915.342970,-1184.329507,-2664.741391,-75077.358804
8915.345514,-3404.947333,-6513.812290,-75843.454302
8915.348057,1480.411884,-3404.947333,-79827.150892
8915.350600,3997.112087,-2516.700203,-78907.836294
8915.353143,-8290.306550,148.041188,-76303.111601
8915.355686,4441.235652,-6513.812290,-77682.083497
8915.358230,-6069.688724,-4145.153275,-75383.797003
8915.360773,-12879.583391,-7105.977043,-77988.521696
8915.363316,-4441.235652,-6217.729913,-79214.274493
8915.365859,-5033.400406,-8290.306550,-76762.768900
8915.368402,-6513.812290,-5921.647536,-76149.892501
8915.370946,-148.041188,-3701.029710,-78448.178995
8915.373489,5329.482782,-3552.988522,-77069.207099
8915.376032,-7254.018232,148.041188,-75383.797003
8915.378575,-5773.606348,2220.617826,-77682.083497
8915.381119,11251.130318,4441.235652,-79827.150892
8915.383662,5773.606348,6069.688724,-77069.207099
8915.386205,4145.153275,7846.182985,-77528.864398
8915.388748,11251.130318,2516.700203,-79367.493593
8915.391291,2960.823768,4145.153275,-74617.701505
8915.393835,-4145.153275,-148.041188,-75843.454302
8915.396378,-296.082377,444.123565,-79061.055394
8915.398921,6217.729913,-2960.823768,-78601.398095
8915.401464,-1184.329507,-1776.494261,-74924.139704
8915.404007,3849.070898,0.000000,-75996.673402
8915.406551,7550.100608,1480.411884,-78294.959896
8915.409094,-3404.947333,2072.576638,-77528.864398
8915.411637,-2516.700203,3108.864956,-77528.864398
8915.414188,3256.906145,1480.411884,-78294.959896
8915.416738,7846.182985,-1036.288319,-79827.150892
8915.419289,3404.947333,4145.153275,-75843.454302
8915.421839,2516.700203,1332.370696,-77682.083497
8915.424390,14211.954086,4441.235652,-78448.178995
8915.426941,2072.576638,1628.453072,-75996.673402
8915.429491,5773.606348,5033.400406,-78754.617194
8915.432042,4441.235652,888.247130,-79980.369991
8915.434593,4441.235652,4737.318029,-75843.454302
8915.437143,-2368.659014,1480.411884,-78294.959896
8915.439694,1480.411884,3997.112087,-78754.617194
8915.442244,-10955.047942,-7105.977043,-77988.521696
8915.444795,-11399.171507,-7254.018232,-74311.263306
8915.447346,-6957.935855,-11399.171507,-78601.398095
8915.449896,6069.688724,-7994.224174,-77835.302597
8915.452447,-4737.318029,-7994.224174,-76915.987999
8915.454998,-740.205942,-5625.565159,-78294.959896
8915.457548,592.164754,-2960.823768,-79061.055394
8915.460099,-7846.182985,-296.082377,-75996.673402
8915.462649,-8142.265362,-740.205942,-76303.111601
8915.465200,148.041188,296.082377,-79214.274493
8915.467751,2812.782580,-6069.688724,-78141.740796
8915.470301,-8586.388927,-6217.729913,-75537.016103
8915.472852,148.041188,-1924.535449,-78448.178995
8915.475403,1776.494261,-7550.100608,-78294.959896
8915.477953,-2072.576638,-1036.288319,-76609.549800
8915.480504,-4589.276840,-4589.276840,-79061.055394
8915.483054,2664.741391,-3997.112087,-75537.016103
8915.485605,-8586.388927,-7550.100608,-76762.768900
8915.488156,-12583.501014,-5033.400406,-76456.330700
8915.490706,-3997.112087,-7254.018232,-79367.493593
8915.493257,-592.164754,-6069.688724,-76456.330700
8915.495813,-2664.741391,-6513.812290,-77222.426198
8915.498369,5773.606348,-3997.112087,-79061.055394
8915.500925,-3701.029710,-3108.864956,-75077.358804
8915.503481,-6513.812290,3701.029710,-75690.235202
8915.506037,1036.288319,3997.112087,-79520.712692
8915.508593,13175.665768,6661.853478,-78294.959896
8915.511149,6513.812290,4589.276840,-77069.207099
8915.513705,4885.359217,6809.894666,-76456.330700
8915.516261,7846.182985,1332.370696,-78754.617194
8915.518817,740.205942,2812.782580,-76915.987999
8915.521373,-6069.688724,-148.041188,-77835.302597
8915.523929,5625.565159,-3701.029710,-80286.808190
8915.526485,4885.359217,-2072.576638,-77069.207099
8915.529041,-296.082377,2220.617826,-76762.768900
8915.531597,1332.370696,5329.482782,-77222.426198
8915.534153,3997.112087,-296.082377,-79673.931792
8915.536709,-2072.576638,592.164754,-76303.111601
8915.539265,-2220.617826,1036.288319,-76915.987999
8915.541822,5773.606348,3108.864956,-77682.083497
8915.544378,3404.947333,444.123565,-77988.521696
8915.546934,1924.535449,1036.288319,-77528.864398
8915.549490,13619.789333,2664.741391,-76456.330700
8915.552046,6217.729913,3404.947333,-75843.454302
8915.554602,4737.318029,4589.276840,-75843.454302
8915.557158,4145.153275,1924.535449,-80899.684589
8915.559714,4441.235652,5181.441594,-76915.987999
8915.562270,0.000000,0.000000,-76303.111601
8915.564826,3701.029710,5477.523971,-77222.426198
8915.567382,-8586.388927,-10066.800811,-78907.836294
8915.569938,-13027.624579,-7402.059420,-74311.263306
8915.572494,-11399.171507,-8438.347739,-77069.207099
8915.575050,7105.977043,-8882.471304,-76456.330700
8915.577606,-888.247130,-10214.842000,-78907.836294
8915.580162,-2960.823768,-2516.700203,-76149.892501
8915.582718,-2220.617826,-1924.535449,-77835.302597
8915.585274,-3849.070898,-1036.288319,-75996.673402
8915.587830,-14359.995275,148.041188,-75537.016103
8915.590386,1776.494261,-740.205942,-79367.493593
8915.592942,2368.659014,-4441.235652,-77682.083497
8915.595498,-8882.471304,-3997.112087,-74004.825107
8915.598059,-1332.370696,-1628.453072,-75843.454302
8915.600620,1480.411884,-5181.441594,-81052.903688
8915.603181,-2072.576638,-444.123565,-76915.987999
8915.605741,-4737.318029,-5329.482782,-77069.207099
8915.608302,-148.041188,-3997.112087,-77375.645298
8915.610863,-8142.265362,-6957.935855,-76609.549800
8915.613424,-13915.871710,-5477.523971,-75843.454302
8915.615985,-5181.441594,-7254.018232,-78601.398095
8915.618545,-296.082377,-6957.935855,-75843.454302
8915.621106,-1924.535449,-4737.318029,-75996.673402
8915.623667,-3997.112087,-1184.329507,-78754.617194
8915.626228,-592.164754,-4885.359217,-78294.959896
8915.628789,-2664.741391,5033.400406,-75537.016103
8915.631349,-1184.329507,5773.606348,-79520.712692
8915.633910,14952.160028,6661.853478,-79214.274493
8915.636471,6217.729913,5181.441594,-76149.892501
8915.639032,5921.647536,6809.894666,-76456.330700
8915.641593,5181.441594,0.000000,-78294.959896
8915.644153,1036.288319,-740.205942,-76609.549800
8915.646714,-5181.441594,-3108.864956,-77682.083497
8915.649275,2960.823768,1036.288319,-78294.959896
8915.651836,10510.924376,-4737.318029,-77222.426198
8915.654397,2664.741391,2516.700203,-74004.825107
8915.656957,-5773.606348,1924.535449,-77835.302597
8915.659518,5329.482782,4441.235652,-77835.302597
8915.662079,-1332.370696,-2664.741391,-76456.330700
8915.664640,-1924.535449,3108.864956,-78601.398095
8915.667201,5921.647536,1480.411884,-77682.083497
8915.669761,8586.388927,0.000000,-77682.083497
8915.672322,1480.411884,2812.782580,-76456.330700
8915.674883,9622.677246,4885.359217,-77069.207099
8915.677444,9326.594869,2516.700203,-77528.864398
8915.680005,-1036.288319,4145.153275,-76915.987999
8915.682565,4589.276840,2812.782580,-78907.836294
8915.685126,5921.647536,-296.082377,-78448.178995
8915.687687,296.082377,5477.523971,-75077.358804
8915.690248,-6217.729913,-1776.494261,-77682.083497
8915.692809,-8734.430116,-6957.935855,-77069.207099
8915.695369,-6365.771101,-9474.636058,-75230.577904
8915.697930,-5477.523971,-10214.842000,-77375.645298
8915.700468,3404.947333,-8438.347739,-79827.150892
8915.703004,2368.659014,-6365.771101,-77375.645298
8915.705539,-5625.565159,-3552.988522,-77069.207099
8915.708075,-3108.864956,2220.617826,-76762.768900
8915.710611,-5921.647536,-2072.576638,-75383.797003
8915.713146,-5477.523971,-888.247130,-75843.454302
8915.715682,-3552.988522,-3552.988522,-78294.959896
8915.718218,740.205942,-5921.647536,-78907.836294
8915.720753,592.164754,-3552.988522,-74311.263306
8915.723289,-7105.977043,-8142.265362,-79214.274493
8915.725825,4293.194464,444.123565,-79520.712692
8915.728360,-3849.070898,-5773.606348,-77835.302597
8915.730896,-4293.194464,-1628.453072,-76609.549800
8915.733431,-6513.812290,-7846.182985,-78448.178995
8915.735967,-5477.523971,-6957.935855,-75077.358804
8915.738503,-12435.459826,-9474.636058,-76609.549800
8915.741038,-3849.070898,-4589.276840,-77682.083497
8915.743574,8586.388927,-6365.771101,-77835.302597
8915.746110,-1184.329507,-1776.494261,-75843.454302
8915.748645,-9622.677246,-3552.988522,-78141.740796
8915.751181,5329.482782,3997.112087,-77375.645298
8915.753717,888.247130,7698.141797,-77069.207099
8915.756252,3997.112087,8586.388927,-80593.246390
8915.758788,12139.377449,4737.318029,-78601.398095
8915.761324,9474.636058,3997.112087,-74924.139704
8915.763859,-1628.453072,0.000000,-75996.673402
8915.766395,1036.288319,1776.494261,-78141.740796
8915.768931,1332.370696,-4441.235652,-77682.083497
8915.771466,-1332.370696,-2368.659014,-77528.864398
8915.774002,2368.659014,3108.864956,-78294.959896
8915.776537,11695.253884,-740.205942,-75843.454302
8915.779073,-2368.659014,1184.329507,-75537.016103
8915.781609,-2812.782580,4441.235652,-74924.139704
8915.784144,2516.700203,888.247130,-79827.150892
8915.786680,3849.070898,2960.823768,-78141.740796
8915.789216,-1480.411884,444.123565,-77069.207099
8915.791751,9326.594869,3552.988522,-77528.864398
8915.794287,7105.977043,0.000000,-77222.426198
8915.796823,2664.741391,5921.647536,-74464.482406
8915.799358,9770.718434,4737.318029,-79367.493593
8915.801902,6217.729913,2664.741391,-77682.083497
8915.804446,1036.288319,2960.823768,-74924.139704
8915.806990,1480.411884,2812.782580,-78141.740796
8915.809534,2960.823768,3404.947333,-78907.836294
8915.812078,-10658.965565,-7550.100608,-78141.740796
8915.814622,-15544.324782,-6513.812290,-75996.673402
8915.817166,-2960.823768,-12287.418637,-77682.083497
8915.819710,1184.329507,-8586.388927,-76149.892501
8915.822254,-3404.947333,-6217.729913,-77682.083497
8915.824798,3552.988522,-5773.606348,-80440.027290
8915.827342,-444.123565,-3701.029710,-77069.207099
8915.829886,-7846.182985,592.164754,-74770.920605
8915.832430,-7402.059420,-2072.576638,-77069.207099
8915.834974,1924.535449,-2220.617826,-79061.055394
8915.837518,2516.700203,-5033.400406,-77835.302597
8915.840062,-3256.906145,-5329.482782,-74617.701505
8915.842606,-4737.318029,-4737.318029,-78141.740796
8915.845150,3108.864956,-5181.441594,-77375.645298
8915.847694,-10362.883188,-5033.400406,-75843.454302
8915.850238,-5033.400406,-444.123565,-75996.673402
8915.852782,-5477.523971,-5625.565159,-78448.178995
8915.855326,-8438.347739,-7105.977043,-75996.673402
8915.857870,-14656.077652,-8734.430116,-77988.521696
8915.860414,0.000000,-7402.059420,-78294.959896
8915.862958,3108.864956,-4589.276840,-76609.549800
8915.865503,-444.123565,-2368.659014,-76762.768900
8915.868047,-3108.864956,-3108.864956,-79214.274493
8915.870591,1776.494261,3701.029710,-75996.673402
8915.873135,-1332.370696,10214.842000,-75996.673402
8915.875679,6365.771101,9326.594869,-79673.931792
8915.878223,11695.253884,4885.359217,-78907.836294
8915.880767,8734.430116,3552.988522,-74464.482406
8915.883311,-1332.370696,1924.535449,-77069.207099
8915.885855,4589.276840,-148.041188,-79061.055394
8915.888399,-1628.453072,-4441.235652,-78754.617194
8915.890943,296.082377,0.000000,-78907.836294
8915.893487,2368.659014,1628.453072,-78754.617194
8915.896031,10214.842000,3849.070898,-75383.797003
8915.898575,-4145.153275,-444.123565,-76303.111601
8915.901119,-2812.782580,1924.535449,-77528.864398
8915.903670,6957.935855,-740.205942,-78448.178995
8915.906221,-1628.453072,2220.617826,-76609.549800
8915.908772,1480.411884,3108.864956,-79673.931792
8915.911323,11695.253884,1036.288319,-77528.864398
8915.913875,5773.606348,2368.659014,-74617.701505
8915.916426,4885.359217,5329.482782,-77528.864398
8915.918977,9030.512492,6809.894666,-78754.617194
8915.921528,3849.070898,1332.370696,-78294.959896
8915.924079,-2516.700203,592.164754,-76915.987999
8915.926630,7254.018232,4145.153275,-77835.302597
8915.929182,-2812.782580,-1628.453072,-76762.768900
8915.931733,-15248.242405,-6513.812290,-75843.454302
8915.934284,-11843.295072,-7846.182985,-77835.302597
8915.936835,1480.411884,-11991.336260,-75537.016103
8915.939386,-4145.153275,-10362.883188,-76456.330700
8915.941937,-2072.576638,-5181.441594,-77835.302597
8915.944489,0.000000,-2812.782580,-80286.808190
8915.947040,-3552.988522,592.164754,-75230.577904
8915.949591,-12435.459826,-740.205942,-75537.016103
8915.952142,-2220.617826,592.164754,-77069.207099
8915.954693,1332.370696,-4293.194464,-78141.740796
8915.957245,-1628.453072,-4885.359217,-75537.016103
8915.959796,1480.411884,-3404.947333,-78294.959896
8915.962347,1184.329507,-8734.430116,-77988.521696
8915.964898,-148.041188,-2664.741391,-76915.987999
8915.967449,-8142.265362,-3997.112087,-78448.178995
8915.970000,740.205942,-3404.947333,-78448.178995
8915.972552,-10362.883188,-5329.482782,-76762.768900
8915.975103,-12879.583391,-7105.977043,-76609.549800
8915.977654,-5477.523971,-9474.636058,-79061.055394
8915.980205,148.041188,-7994.224174,-76609.549800
8915.982756,-740.205942,-3552.988522,-76609.549800
8915.985308,2220.617826,-2812.782580,-78448.178995
8915.987859,3108.864956,-1184.329507,-76303.111601
8915.990410,-1480.411884,6513.812290,-75690.235202
8915.992961,3552.988522,11991.336260,-80899.684589
8915.995512,9326.594869,7402.059420,-80593.246390
8915.998063,8586.388927,5477.523971,-76609.549800
8916.000615,2812.782580,3404.947333,-75996.673402
8916.003166,7254.018232,-740.205942,-77835.302597
8916.005723,-3256.906145,-1332.370696,-78141.740796
8916.008281,-3701.029710,-3701.029710,-79214.274493
8916.010838,3701.029710,1036.288319,-80746.465489
8916.013396,9770.718434,888.247130,-75230.577904
8916.015953,-1332.370696,1628.453072,-73698.386908
8916.018510,-1184.329507,5181.441594,-77988.521696
8916.021068,3701.029710,-2812.782580,-77682.083497
8916.023625,1332.370696,3552.988522,-75077.358804
8916.026183,-740.205942,1480.411884,-79061.055394
8916.028740,11991.336260,740.205942,-79061.055394
8916.031298,2516.700203,-1036.288319,-75537.016103
8916.033855,6365.771101,5329.482782,-74770.920605
8916.036413,8438.347739,8882.471304,-79520.712692
8916.038970,3997.112087,4885.359217,-76149.892501
8916.041527,-2220.617826,1628.453072,-77835.302597
8916.044085,6513.812290,5625.565159,-77835.302597
8916.046642,3849.070898,-1776.494261,-77835.302597
8916.049200,-14508.036463,-5773.606348,-77375.645298
8916.051757,-13027.624579,-9178.553681,-77682.083497
8916.054315,-740.205942,-14063.912898,-76762.768900
8916.056872,-1184.329507,-8586.388927,-76609.549800
8916.059430,-3849.070898,-6365.771101,-77682.083497
8916.061987,4885.359217,-4589.276840,-78907.836294
8916.064545,-1924.535449,-1184.329507,-76456.330700
8916.067102,-13175.665768,2960.823768,-74617.701505
8916.069659,-3552.988522,-444.123565,-78907.836294
8916.072217,148.041188,-1924.535449,-77528.864398
8916.074774,-3997.112087,-5181.441594,-77682.083497
8916.077332,592.164754,-7105.977043,-78141.740796
8916.079889,2812.782580,-5329.482782,-77682.083497
8916.082447,-2664.741391,-4145.153275,-76762.768900
8916.085004,-3997.112087,-3997.112087,-78294.959896
8916.087562,-1036.288319,-5329.482782,-79367.493593
8916.090119,-7254.018232,-2960.823768,-74464.482406
8916.092676,-15692.365970,-7994.224174,-78448.178995
8916.095234,-1924.535449,-10362.883188,-78601.398095
8916.097791,-2516.700203,-8882.471304,-76762.768900
8916.100349,-1036.288319,-1776.494261,-76456.330700
8916.102906,-7254.018232,-2960.823768,-78294.959896
8916.105464,5181.441594,-2368.659014,-77069.207099
8916.108026,-2220.617826,5477.523971,-76303.111601
8916.110587,5181.441594,12583.501014,-79367.493593
8916.113149,11843.295072,8882.471304,-79214.274493
8916.115711,6365.771101,4145.153275,-76915.987999
8916.118273,1480.411884,3256.906145,-76915.987999
8916.120835,6513.812290,-148.041188,-76609.549800
8916.123397,-3849.070898,-1776.494261,-76456.330700
8916.125959,-1924.535449,-4441.235652,-77682.083497
8916.128521,7105.977043,-1628.453072,-79673.931792
8916.131083,3849.070898,5033.400406,-76915.987999
8916.133645,-1332.370696,4885.359217,-75690.235202
8916.136206,-2664.741391,888.247130,-79061.055394
8916.138768,4589.276840,-148.041188,-75077.358804
8916.141330,-1628.453072,2812.782580,-76149.892501
8916.143892,3108.864956,6809.894666,-77682.083497
8916.146454,9770.718434,-1924.535449,-79520.712692
8916.149016,10510.924376,148.041188,-76762.768900
8916.151578,2812.782580,6661.853478,-75230.577904
8916.154140,8882.471304,6365.771101,-79061.055394
8916.156702,4145.153275,6069.688724,-78141.740796
8916.159264,-2664.741391,2072.576638,-76915.987999
8916.161825,9622.677246,5181.441594,-78448.178995
8916.164387,-5773.606348,-3997.112087,-76915.987999
8916.166949,-15692.365970,-6069.688724,-75383.797003
8916.169511,-10510.924376,-13027.624579,-78141.740796
8916.172073,2812.782580,-9918.759623,-77682.083497
8916.174635,-2812.782580,-10658.965565,-77222.426198
8916.177197,-1924.535449,-4145.153275,-77528.864398
8916.179759,1776.494261,-3404.947333,-78448.178995
8916.182321,-2812.782580,1480.411884,-75537.016103
8916.184883,-15396.283594,1184.329507,-76149.892501
8916.187445,444.123565,-1332.370696,-78907.836294
8916.190006,1332.370696,-4885.359217,-77835.302597
8916.192568,-3849.070898,-6957.935855,-74924.139704
8916.195130,-3256.906145,-2220.617826,-77069.207099
8916.197692,1924.535449,-6069.688724,-79673.931792
8916.200254,-592.164754,-4737.318029,-77222.426198
8916.202816,-8586.388927,-5329.482782,-77835.302597
8916.205378,444.123565,-3997.112087,-76456.330700
8916.207940,-12287.418637,-3997.112087,-75537.016103
8916.210505,-11547.212695,-6661.853478,-79367.493593
8916.213071,-740.205942,-12139.377449,-78754.617194
8916.215637,3404.947333,-6661.853478,-75843.454302
8916.218202,-7105.977043,-3997.112087,-76149.892501
8916.220768,-2072.576638,-444.123565,-78601.398095
8916.223333,5625.565159,4293.194464,-76915.987999
8916.225899,1184.329507,9622.677246,-75996.673402
8916.228465,5921.647536,11251.130318,-79061.055394
8916.231030,13323.706956,8882.471304,-77682.083497
8916.233596,4589.276840,1332.370696,-75996.673402
8916.236162,-1036.288319,2220.617826,-77528.864398
8916.238727,4589.276840,-4293.194464,-80286.808190
8916.241293,3256.906145,-4441.235652,-78141.740796
8916.243858,1480.411884,-1184.329507,-77222.426198
8916.246424,6809.894666,740.205942,-77835.302597
8916.248990,6217.729913,7105.977043,-76762.768900
8916.251555,-1480.411884,1184.329507,-77835.302597
8916.254121,-5181.441594,3256.906145,-77222.426198
8916.256686,7254.018232,1332.370696,-79980.369991
8916.259252,2072.576638,3404.947333,-75996.673402
8916.261818,2516.700203,1480.411884,-78601.398095
8916.264383,8290.306550,1628.453072,-77069.207099
8916.266949,14063.912898,3404.947333,-77835.302597
8916.269515,1480.411884,6661.853478,-76303.111601
8916.272080,0.000000,7402.059420,-79827.150892
8916.274646,7254.018232,1036.288319,-78907.836294
8916.277211,2664.741391,5477.523971,-75996.673402
8916.279777,-12731.542202,-3849.070898,-78448.178995
8916.282343,-6513.812290,-8142.265362,-76915.987999
8916.284908,-10807.006753,-12879.583391,-76149.892501
8916.287474,-4589.276840,-10214.842000,-74770.920605
8916.290039,296.082377,-9770.718434,-79520.712692
8916.292605,3849.070898,-5181.441594,-77069.207099
8916.295171,-7105.977043,-1924.535449,-76609.549800
8916.297736,-4737.318029,4293.194464,-76456.330700
8916.300302,-8290.306550,0.000000,-76303.111601
8916.302868,-3404.947333,-888.247130,-74004.825107
8916.305433,296.082377,-5181.441594,-80593.246390
8916.307999,3256.906145,-5773.606348,-78141.740796
8916.310564,2516.700203,-1628.453072,-75996.673402
8916.313133,-9474.636058,-6217.729913,-78601.398095
8916.315702,1184.329507,-2664.741391,-77988.521696
8916.318271,-3108.864956,-7994.224174,-77835.302597
8916.320840,-13027.624579,0.000000,-75383.797003
8916.323409,-9474.636058,-7550.100608,-80133.589091
8916.325977,-5477.523971,-9474.636058,-74770.920605
8916.328546,-4885.359217,-11991.336260,-75537.016103
8916.331115,6661.853478,-2220.617826,-77528.864398
8916.333684,-1924.535449,-5181.441594,-78907.836294
8916.336253,1184.329507,3849.070898,-76609.549800
8916.338822,-2072.576638,7994.224174,-78294.959896
8916.341391,11103.089130,12879.583391,-79520.712692
8916.343959,6069.688724,9178.553681,-76762.768900
8916.346528,4885.359217,7994.224174,-76762.768900
8916.349097,6809.894666,-148.041188,-77375.645298
8916.351666,1036.288319,-1924.535449,-75843.454302
8916.354235,-3701.029710,-2812.782580,-78601.398095
8916.356804,-296.082377,-3701.029710,-81206.122788
8916.359373,8438.347739,-1036.288319,-76456.330700
8916.361941,5329.482782,3552.988522,-74158.044206
8916.364510,-3849.070898,5921.647536,-78448.178995
8916.367079,5181.441594,-740.205942,-78448.178995
8916.369648,740.205942,1628.453072,-74924.139704
8916.372217,-1036.288319,5921.647536,-78141.740796
8916.374786,11991.336260,3256.906145,-79520.712692
8916.377354,10658.965565,-1628.453072,-77375.645298
8916.379923,5033.400406,1480.411884,-74311.263306
8916.382492,7254.018232,5033.400406,-79214.274493
8916.385061,6809.894666,8290.306550,-76456.330700
8916.387630,-3701.029710,3701.029710,-78294.959896
8916.390199,7550.100608,4441.235652,-78754.617194
8916.392768,888.247130,-296.082377,-76456.330700
8916.395336,-13471.748144,-7402.059420,-75537.016103
8916.397905,-14952.160028,-9770.718434,-78294.959896
8916.400474,592.164754,-12879.583391,-77375.645298
8916.403043,148.041188,-12583.501014,-77988.521696
8916.405612,-3701.029710,-4885.359217,-76609.549800
8916.408181,2368.659014,-1924.535449,-78448.178995
8916.410750,-2516.700203,-444.123565,-75996.673402
8916.413318,-12287.418637,2368.659014,-74158.044206
8916.415861,-1776.494261,1036.288319,-79520.712692
8916.418403,3552.988522,-1480.411884,-78601.398095
8916.420946,-1480.411884,-11991.336260,-79673.931792
8916.423488,-4885.359217,-7994.224174,-78141.740796
8916.426030,3108.864956,-2664.741391,-78601.398095
8916.428573,-4293.194464,-5477.523971,-76456.330700
8916.431115,-6513.812290,-4737.318029,-76456.330700
8916.433658,-3701.029710,-3997.112087,-77682.083497
8916.436200,-9770.718434,-6217.729913,-77375.645298
8916.438742,-12139.377449,-7254.018232,-77069.207099
8916.441285,-592.164754,-10510.924376,-78141.740796
8916.443827,4885.359217,-6513.812290,-75230.577904
8916.446370,-7846.182985,-3404.947333,-75996.673402
8916.448912,-3404.947333,1924.535449,-77222.426198
8916.451454,8734.430116,4145.153275,-79520.712692
8916.453997,8142.265362,13619.789333,-75537.016103
8916.456539,2812.782580,11547.212695,-79673.931792
8916.459082,10807.006753,4293.194464,-79061.055394
8916.461624,6069.688724,2516.700203,-74770.920605
8916.464166,-5033.400406,-2220.617826,-76456.330700
8916.466709,4293.194464,444.123565,-79520.712692
8916.469251,592.164754,-5477.523971,-79673.931792
8916.471794,2220.617826,-740.205942,-75077.358804
8916.474336,1184.329507,3849.070898,-77222.426198
8916.476879,5477.523971,2368.659014,-75230.577904
8916.479421,-1036.288319,-592.164754,-78601.398095
8916.481963,-2812.782580,3849.070898,-78448.178995
8916.484506,7254.018232,3108.864956,-77988.521696
8916.487048,3997.112087,1776.494261,-76609.549800
8916.489591,2664.741391,740.205942,-77682.083497
8916.492133,17616.901420,296.082377,-78141.740796
8916.494675,7254.018232,4737.318029,-75996.673402
8916.497218,-740.205942,7105.977043,-77528.864398
8916.499760,2368.659014,4441.235652,-80440.027290
8916.502303,9030.512492,5181.441594,-78448.178995
8916.504845,-11547.212695,-1776.494261,-74617.701505
8916.507387,-11695.253884,-7254.018232,-77835.302597
8916.509930,-7254.018232,-14211.954086,-76762.768900
8916.512472,-5773.606348,-14804.118840,-75537.016103
8916.515015,-2960.823768,-10658.965565,-78754.617194
8916.517565,3701.029710,-3256.906145,-78907.836294
8916.520115,888.247130,-3849.070898,-78141.740796
8916.522665,-10066.800811,2220.617826,-73851.606007
8916.525215,-4145.153275,2664.741391,-76609.549800
8916.527765,0.000000,444.123565,-77222.426198
8916.530315,-4145.153275,-4589.276840,-78294.959896
8916.532865,1332.370696,-5033.400406,-79367.493593
8916.535415,-148.041188,-9178.553681,-75690.235202
8916.537965,592.164754,-4885.359217,-74924.139704
8916.540515,-11103.089130,-4589.276840,-78601.398095
8916.543065,2220.617826,-6661.853478,-79061.055394
8916.545615,-9622.677246,-2664.741391,-76303.111601
8916.548165,-13619.789333,-3404.947333,-76149.892501
8916.550715,-3256.906145,-11843.295072,-80440.027290
8916.553265,444.123565,-8142.265362,-75843.454302
8916.555815,-2368.659014,-5625.565159,-75230.577904
8916.558365,-2072.576638,-5625.565159,-79061.055394
8916.560915,6809.894666,2664.741391,-78754.617194
8916.563465,3108.864956,8882.471304,-75383.797003
8916.566015,6069.688724,14063.912898,-79520.712692
8916.568565,9918.759623,10807.006753,-78907.836294
8916.571115,6365.771101,4737.318029,-73698.386908
8916.573665,-296.082377,-1480.411884,-76609.549800
8916.576216,3997.112087,-1924.535449,-77835.302597
8916.578766,148.041188,-2220.617826,-80133.589091
8916.581316,-4293.194464,-148.041188,-79980.369991
8916.583866,4441.235652,3997.112087,-77835.302597
8916.586416,3552.988522,740.205942,-74311.263306
8916.588966,-1924.535449,2220.617826,-74158.044206
8916.591516,-888.247130,2220.617826,-78907.836294
8916.594066,6809.894666,2368.659014,-79367.493593
8916.596616,3849.070898,3701.029710,-76609.549800
8916.599166,1776.494261,2072.576638,-78294.959896
8916.601716,18061.024985,-592.164754,-78907.836294
8916.604266,5773.606348,2812.782580,-73238.729609
8916.606816,1628.453072,8290.306550,-75996.673402
8916.609366,0.000000,5921.647536,-81052.903688
8916.611916,11251.130318,4737.318029,-77682.083497
8916.614466,-5773.606348,1036.288319,-77222.426198
8916.617016,-12139.377449,-3404.947333,-77375.645298
8916.619573,-9622.677246,-15248.242405,-76915.987999
8916.622129,-11103.089130,-14804.118840,-75230.577904
8916.624686,444.123565,-13767.830521,-78907.836294
8916.627242,5033.400406,-8586.388927,-77682.083497
8916.629799,-740.205942,-1332.370696,-77682.083497
8916.632355,-6069.688724,0.000000,-76149.892501
8916.634912,-4441.235652,3108.864956,-75843.454302
8916.637468,-3552.988522,1924.535449,-75843.454302
8916.640025,-3108.864956,-3701.029710,-78907.836294
8916.642581,-444.123565,-3256.906145,-80899.684589
8916.645138,2368.659014,-7105.977043,-74311.263306
8916.647694,-7698.141797,-5773.606348,-77069.207099
8916.650251,-1628.453072,-3701.029710,-79061.055394
8916.652808,0.000000,-7698.141797,-79367.493593
8916.655364,-9030.512492,-3997.112087,-74617.701505
8916.657921,-15396.283594,-2368.659014,-78294.959896
8916.660477,-2072.576638,-10658.965565,-79520.712692
8916.663034,1480.411884,-8438.347739,-76609.549800
8916.665590,-6069.688724,-5773.606348,-73238.729609
8916.668147,-4441.235652,-2072.576638,-76456.330700
8916.670703,6217.729913,592.164754,-78294.959896
8916.673260,6661.853478,10807.006753,-76609.549800
8916.675816,5033.400406,11843.295072,-79520.712692
8916.678373,9918.759623,11251.130318,-78601.398095
8916.680929,6069.688724,888.247130,-75843.454302
8916.683486,-148.041188,-1036.288319,-73698.386908
8916.686042,-1924.535449,-2072.576638,-78754.617194
8916.688599,6661.853478,-4885.359217,-79520.712692
8916.691155,-1480.411884,-1332.370696,-79061.055394
8916.693712,5477.523971,148.041188,-78141.740796
8916.696269,2812.782580,5181.441594,-74311.263306
8916.698825,-2664.741391,0.000000,-75537.016103
8916.701384,-6513.812290,1628.453072,-77988.521696
8916.703946,9918.759623,5329.482782,-77988.521696
8916.706507,4737.318029,3256.906145,-76456.330700
8916.709069,4589.276840,888.247130,-76915.987999
8916.711630,12879.583391,-444.123565,-79061.055394
8916.714192,8438.347739,4441.235652,-74464.482406
8916.716754,0.000000,7698.141797,-75690.235202
8916.719315,2812.782580,5625.565159,-80746.465489
8916.721877,10807.006753,5477.523971,-79827.150892
8916.724438,-8734.430116,-4589.276840,-76609.549800
8916.727000,-14952.160028,-5329.482782,-75843.454302
8916.729562,-5773.606348,-15692.365970,-78141.740796
8916.732123,-1332.370696,-15988.448347,-76303.111601
8916.734685,-6069.688724,-11399.171507,-78448.178995
8916.737246,5477.523971,-1628.453072,-79061.055394
8916.739808,-1036.288319,-1776.494261,-78294.959896
8916.742370,-8882.471304,1776.494261,-74924.139704
8916.744931,-11399.171507,2220.617826,-75383.797003
8916.747493,5477.523971,-3997.112087,-76303.111601
8916.750054,148.041188,-1628.453072,-77682.083497
8916.752616,-5625.565159,-6069.688724,-81206.122788
8916.755178,740.205942,-5181.441594,-77528.864398
8916.757739,-3108.864956,-7402.059420,-75230.577904
8916.760301,-6661.853478,-5181.441594,-77528.864398
8916.762862,740.205942,-8290.306550,-78754.617194
8916.765424,-12435.459826,-4145.153275,-74770.920605
8916.767985,-12435.459826,-6809.894666,-75996.673402
8916.770547,-2664.741391,-8142.265362,-80440.027290
8916.773109,5921.647536,-7105.977043,-75996.673402
8916.775670,-10362.883188,-6513.812290,-74617.701505
8916.778232,1480.411884,1776.494261,-77528.864398
8916.780793,8734.430116,5625.565159,-77988.521696
8916.783355,5477.523971,12139.377449,-76609.549800
8916.785917,5181.441594,12879.583391,-79980.369991
8916.788478,11399.171507,5625.565159,-77682.083497
8916.791040,3552.988522,296.082377,-75537.016103
8916.793601,-5477.523971,-2960.823768,-75537.016103
8916.796163,2516.700203,-592.164754,-77528.864398
8916.798725,8142.265362,-5773.606348,-79673.931792
8916.801286,-296.082377,148.041188,-77988.521696
8916.803852,1776.494261,2812.782580,-77069.207099
8916.806417,3849.070898,4737.318029,-72012.976812
8916.808983,-2960.823768,-2516.700203,-76609.549800
8916.811549,-888.247130,5477.523971,-79520.712692
8916.814114,8142.265362,5329.482782,-79827.150892
8916.816680,6957.935855,1184.329507,-77835.302597
8916.819245,5625.565159,3701.029710,-75843.454302
8916.821811,13471.748144,740.205942,-77988.521696
8916.824377,6957.935855,6365.771101,-75383.797003
8916.826942,-2516.700203,7105.977043,-77835.302597
8916.829508,6957.935855,6957.935855,-80440.027290
8916.832073,-2220.617826,444.123565,-78448.178995
8916.834639,-16876.695478,-4885.359217,-74617.701505
8916.837205,-10510.924376,-13323.706956,-76762.768900
8916.839770,1924.535449,-16136.489536,-77375.645298
8916.842336,740.205942,-13619.789333,-77069.207099
8916.844901,-2960.823768,-6809.894666,-78754.617194
8916.847467,2812.782580,1628.453072,-79367.493593
8916.850033,-4737.318029,296.082377,-78448.178995
8916.852598,-13915.871710,296.082377,-75537.016103
8916.855164,888.247130,1184.329507,-77069.207099
8916.857729,592.164754,-1036.288319,-75843.454302
8916.860295,-1332.370696,-5181.441594,-77835.302597
8916.862861,-7105.977043,-6661.853478,-79520.712692
8916.865426,1924.535449,-3701.029710,-76609.549800
8916.867992,-6513.812290,-9326.594869,-76456.330700
8916.870557,-6661.853478,-3108.864956,-76762.768900
8916.873123,-6365.771101,-8882.471304,-78294.959896
8916.875689,-6661.853478,-2812.782580,-75383.797003
8916.878254,-9326.594869,-8882.471304,-79061.055394
8916.880820,6957.935855,-7105.977043,-79673.931792
8916.883385,-3997.112087,-7402.059420,-76915.987999
8916.885951,-2220.617826,2812.782580,-73545.167808
8916.888517,4441.235652,7550.100608,-79980.369991
8916.891082,13619.789333,11991.336260,-77528.864398
8916.893648,3108.864956,10955.047942,-75843.454302
8916.896213,4589.276840,6661.853478,-77835.302597
8916.898779,8734.430116,-296.082377,-76456.330700
8916.901345,-1480.411884,-4145.153275,-75077.358804
8916.903910,-5773.606348,-740.205942,-79061.055394
8916.906450,7698.141797,-3849.070898,-81972.218286
8916.908990,6069.688724,592.164754,-78294.959896
8916.911529,-2516.700203,1184.329507,-74158.044206
8916.914069,-1036.288319,5625.565159,-75077.358804
8916.916609,3849.070898,-2220.617826,-77835.302597
8916.919149,-2960.823768,1924.535449,-78448.178995
8916.921688,4293.194464,7105.977043,-79673.931792
8916.924228,11991.336260,1480.411884,-76762.768900
8916.926768,5477.523971,1924.535449,-76609.549800
8916.929307,3404.947333,4589.276840,-76149.892501
8916.931847,8734.430116,6365.771101,-78141.740796
8916.934387,2516.700203,6513.812290,-77835.302597
8916.936927,1924.535449,6957.935855,-77375.645298
8916.939466,-6365.771101,-1332.370696,-80746.465489
8916.942006,-11399.171507,-7698.141797,-75230.577904
8916.944546,-14508.036463,-14359.995275,-75690.235202
8916.947086,-1924.535449,-13767.830521,-78448.178995
8916.949625,2812.782580,-16284.530724,-78448.178995
8916.952165,2516.700203,-3404.947333,-76915.987999
8916.954705,-5773.606348,592.164754,-78907.836294
8916.957245,-3701.029710,2220.617826,-76456.330700
8916.959784,-5033.400406,-1332.370696,-74924.139704
8916.962324,-4293.194464,-1184.329507,-75996.673402
8916.964864,1776.494261,-592.164754,-79214.274493
8916.967404,6513.812290,-7994.224174,-80133.589091
8916.969943,-9326.594869,-3997.112087,-75996.673402
8916.972483,148.041188,-5181.441594,-78754.617194
8916.975023,444.123565,-6809.894666,-78448.178995
8916.977562,-8882.471304,-5921.647536,-77375.645298
8916.980102,-13175.665768,-6069.688724,-78141.740796
8916.982642,-1924.535449,-7994.224174,-78754.617194
8916.985182,-1184.329507,-8882.471304,-76609.549800
8916.987721,-4145.153275,-5329.482782,-77682.083497
8916.990261,-444.123565,-6809.894666,-78448.178995
8916.992801,4293.194464,4293.194464,-75230.577904
8916.995341,1036.288319,10362.883188,-78907.836294
8916.997880,9474.636058,14508.036463,-78294.959896
8917.000420,9326.594869,7402.059420,-77682.083497
8917.002960,2516.700203,4145.153275,-73391.948708
8917.005500,-444.123565,-3552.988522,-77682.083497
8917.008019,5921.647536,-2072.576638,-75996.673402
8917.010538,296.082377,-3997.112087,-79214.274493
8917.013057,-1480.411884,2368.659014,-81359.341888
8917.015577,7846.182985,-4293.194464,-78294.959896
8917.018096,1480.411884,5921.647536,-73391.948708
8917.020615,-2664.741391,4441.235652,-75077.358804
8917.023134,2220.617826,-888.247130,-79061.055394
8917.025654,4885.359217,5625.565159,-78141.740796
8917.028173,2368.659014,3701.029710,-76609.549800
8917.030692,10066.800811,4145.153275,-77988.521696
8917.033211,14063.912898,-1332.370696,-77528.864398
8917.035731,2812.782580,4737.318029,-74158.044206
8917.038250,1628.453072,5921.647536,-79061.055394
8917.040769,8734.430116,7698.141797,-77835.302597
8917.043288,-4737.318029,1184.329507,-78448.178995
8917.045808,-17172.777854,-5033.400406,-76915.987999
8917.048327,-11547.212695,-13027.624579,-77375.645298
8917.050846,-740.205942,-17468.860231,-74924.139704
8917.053366,-4293.194464,-14656.077652,-77069.207099
8917.055885,3404.947333,-7105.977043,-79214.274493
8917.058404,3552.988522,-1332.370696,-77988.521696
8917.060923,-7550.100608,148.041188,-76762.768900
8917.063443,-5921.647536,740.205942,-77222.426198
8917.065962,1628.453072,-4737.318029,-76456.330700
8917.068481,3404.947333,1776.494261,-75996.673402
8917.071000,-3108.864956,-6069.688724,-80286.808190
8917.073520,-740.205942,-3997.112087,-80133.589091
8917.076039,-4441.235652,-7698.141797,-76456.330700
8917.078558,-8734.430116,-5477.523971,-76149.892501
8917.081077,-10214.842000,-7254.018232,-78601.398095
8917.083597,-1776.494261,-6957.935855,-78448.178995
8917.086116,-6957.935855,-5625.565159,-76303.111601
8917.088635,-4293.194464,-9178.553681,-77069.207099
8917.091154,-1776.494261,-5181.441594,-78294.959896
8917.093674,-2664.741391,-7105.977043,-76456.330700
8917.096193,1480.411884,5329.482782,-75077.358804
8917.098712,6513.812290,13027.624579,-79980.369991
8917.101231,15396.283594,12731.542202,-77375.645298
8917.103751,1332.370696,9030.512492,-75843.454302
8917.106270,3849.070898,4737.318029,-76149.892501
8917.108801,5033.400406,-3997.112087,-76303.111601
8917.111333,148.041188,-2960.823768,-77988.521696
8917.113864,2960.823768,-3108.864956,-78141.740796
8917.116396,7254.018232,592.164754,-81972.218286
8917.118927,2072.576638,888.247130,-76303.111601
8917.121459,-3256.906145,5329.482782,-73238.729609
8917.123990,-1628.453072,444.123565,-76609.549800
8917.126522,6661.853478,888.247130,-78601.398095
8917.129053,-3108.864956,3256.906145,-78907.836294
8917.131585,10066.800811,7846.182985,-78294.959896
8917.134116,14952.160028,-296.082377,-77375.645298
8917.136648,8882.471304,740.205942,-74924.139704
8917.139179,444.123565,5477.523971,-74924.139704
8917.141711,5625.565159,6365.771101,-78907.836294
8917.144242,6957.935855,8438.347739,-78294.959896
8917.146774,-13175.665768,-444.123565,-79520.712692
8917.149305,-11251.130318,-5181.441594,-78294.959896
8917.151836,-11695.253884,-16432.571912,-74617.701505
8917.154368,-7105.977043,-16876.695478,-75383.797003
8917.156899,-3997.112087,-12879.583391,-80133.589091
8917.159431,7994.224174,-1480.411884,-79520.712692
8917.161962,-3701.029710,-740.205942,-77528.864398
8917.164494,-10362.883188,2516.700203,-77682.083497
8917.167025,-5033.400406,-2664.741391,-75383.797003
8917.169557,2812.782580,-1628.453072,-75077.358804
8917.172088,-2220.617826,-2368.659014,-77835.302597
8917.174620,1036.288319,-3849.070898,-80746.465489
8917.177151,1924.535449,-6365.771101,-76762.768900
8917.179683,-7846.182985,-7846.182985,-75690.235202
8917.182214,-7846.182985,-7550.100608,-77375.645298
8917.184746,-4293.194464,-7402.059420,-77988.521696
8917.187277,-9918.759623,-5329.482782,-75843.454302
8917.189808,-6365.771101,-6661.853478,-78754.617194
8917.192340,4293.194464,-9770.718434,-79367.493593
8917.194871,-4589.276840,-5181.441594,-76456.330700
8917.197403,-8438.347739,-3108.864956,-76915.987999
8917.199934,9770.718434,7105.977043,-77069.207099
8917.202466,11695.253884,13323.706956,-77528.864398
8917.204997,3552.988522,11843.295072,-76915.987999
8917.207529,4293.194464,9326.594869,-77069.207099
8917.210071,9474.636058,-1924.535449,-76609.549800
8917.212613,-4441.235652,-4737.318029,-74924.139704
8917.215155,-1480.411884,-1480.411884,-79827.150892
8917.217697,12139.377449,-4737.318029,-79980.369991
8917.220239,2516.700203,-2664.741391,-77528.864398
8917.222781,-148.041188,6809.894666,-77069.207099
8917.225323,2516.700203,4145.153275,-77069.207099
8917.227865,2664.741391,296.082377,-76915.987999
8917.230408,1924.535449,888.247130,-78448.178995
8917.232950,5921.647536,6513.812290,-79827.150892
8917.235492,11695.253884,3404.947333,-77682.083497
8917.238034,6661.853478,1776.494261,-74924.139704
8917.240576,5625.565159,3108.864956,-77375.645298
8917.243118,9030.512492,4293.194464,-76456.330700
8917.245660,1480.411884,6365.771101,-76149.892501
8917.248202,-5625.565159,6957.935855,-78294.959896
8917.250744,-13027.624579,-3997.112087,-80440.027290
8917.253286,-12139.377449,-13767.830521,-76762.768900
8917.255828,-10658.965565,-16136.489536,-73851.606007
8917.258370,3701.029710,-14211.954086,-77222.426198
8917.260913,2220.617826,-10955.047942,-78601.398095
8917.263455,-2220.617826,-1036.288319,-76915.987999
8917.265997,-3552.988522,2664.741391,-79980.369991
8917.268539,-2072.576638,-1628.453072,-75383.797003
8917.271081,-1184.329507,-4885.359217,-74924.139704
8917.273623,-2516.700203,1332.370696,-75996.673402
8917.276165,2960.823768,-5625.565159,-81359.341888
8917.278707,296.082377,-3108.864956,-77222.426198
8917.281249,-11251.130318,-8290.306550,-77222.426198
8917.283791,-296.082377,-6957.935855,-77222.426198
8917.286333,-10066.800811,-6661.853478,-76609.549800
8917.288875,-11251.130318,-7105.977043,-77222.426198
8917.291418,-6661.853478,-4737.318029,-78601.398095
8917.293960,5329.482782,-9474.636058,-79673.931792
8917.296502,-4885.359217,-5625.565159,-75996.673402
8917.299044,-9622.677246,-4737.318029,-77988.521696
8917.301586,10510.924376,7105.977043,-77528.864398
8917.304128,8438.347739,11843.295072,-78141.740796
8917.306670,4885.359217,15840.407159,-78448.178995
8917.309212,9030.512492,7994.224174,-78448.178995
8917.311762,3849.070898,3404.947333,-74311.263306
8917.314313,-3552.988522,-3701.029710,-74464.482406
8917.316863,-2072.576638,-2664.741391,-79061.055394
8917.319414,6217.729913,-2072.576638,-79520.712692
8917.321964,5625.565159,-2664.741391,-79061.055394
8917.324514,-2960.823768,444.123565,-77682.083497
8917.327065,6069.688724,5477.523971,-75537.016103
8917.329615,-1776.494261,2812.782580,-74617.701505
8917.332166,-2368.659014,3256.906145,-78448.178995
8917.334716,11547.212695,3256.906145,-81818.999186
8917.337266,11547.212695,1628.453072,-77682.083497
8917.339817,6809.894666,3997.112087,-76609.549800
8917.342367,5773.606348,1480.411884,-77682.083497
8917.344917,6513.812290,2664.741391,-75843.454302
8917.347468,1924.535449,7550.100608,-75077.358804
8917.350018,-1628.453072,7550.100608,-79980.369991
8917.352569,-7105.977043,-5033.400406,-80746.465489
8917.355119,-15840.407159,-10066.800811,-75077.358804
8917.357669,-10214.842000,-17764.942608,-77069.207099
8917.360220,1628.453072,-14211.954086,-77682.083497
8917.362770,2960.823768,-10066.800811,-77528.864398
8917.365321,-4293.194464,148.041188,-78141.740796
8917.367871,-740.205942,3849.070898,-78907.836294
8917.370421,-8438.347739,-1332.370696,-75843.454302
8917.372972,-5477.523971,-2368.659014,-73698.386908
8917.375522,2220.617826,-4441.235652,-78448.178995
8917.378072,6365.771101,-2812.782580,-77375.645298
8917.380623,-5625.565159,-5921.647536,-78294.959896
8917.383173,-10658.965565,-7550.100608,-76456.330700
8917.385724,-3404.947333,-7846.182985,-77988.521696
8917.388274,-10362.883188,-7402.059420,-75537.016103
8917.390824,-10510.924376,-6661.853478,-76762.768900
8917.393375,740.205942,-8290.306550,-79980.369991
8917.395925,-444.123565,-4885.359217,-78141.740796
8917.398475,-8734.430116,-6069.688724,-76915.987999
8917.401026,-1776.494261,-4145.153275,-77835.302597
8917.403576,9178.553681,5625.565159,-75690.235202
8917.406127,13323.706956,13915.871710,-76762.768900
8917.408677,2960.823768,14952.160028,-79520.712692
8917.411227,10362.883188,7105.977043,-78294.959896
8917.413785,2664.741391,444.123565,-74158.044206
8917.416342,-6217.729913,-2960.823768,-75383.797003
8917.418900,3256.906145,-2220.617826,-78448.178995
8917.421457,8734.430116,-2368.659014,-78448.178995
8917.424015,1036.288319,1184.329507,-77988.521696
8917.426572,3108.864956,1184.329507,-79673.931792
8917.429130,3108.864956,2220.617826,-75077.358804
8917.431687,-1480.411884,1332.370696,-75690.235202
8917.434244,1628.453072,2664.741391,-79827.150892
8917.436802,15544.324782,6661.853478,-78601.398095
8917.439359,9918.759623,1628.453072,-77375.645298
8917.441917,5181.441594,6069.688724,-77222.426198
8917.444474,6809.894666,-148.041188,-77682.083497
8917.447032,3552.988522,5181.441594,-74617.701505
8917.449589,1480.411884,8290.306550,-77835.302597
8917.452147,-9178.553681,3404.947333,-80286.808190
8917.454704,-9918.759623,-10066.800811,-78448.178995
8917.457262,-15544.324782,-16432.571912,-75230.577904
8917.459819,-4885.359217,-18653.189738,-76762.768900
8917.462376,5477.523971,-12435.459826,-77835.302597
8917.464934,1036.288319,-4885.359217,-77835.302597
8917.467491,-3404.947333,2220.617826,-79980.369991
8917.470049,148.041188,2072.576638,-77375.645298
8917.472606,-9178.553681,444.123565,-74924.139704
8917.475164,1184.329507,-2812.782580,-74617.701505
8917.477721,740.205942,-3552.988522,-79520.712692
8917.480279,5033.400406,-2960.823768,-78601.398095
8917.482836,-8882.471304,-8142.265362,-78141.740796
8917.485393,-4293.194464,-3849.070898,-77222.426198
8917.487951,-6957.935855,-11843.295072,-76456.330700
8917.490508,-14063.912898,-8290.306550,-74004.825107
8917.493066,-6365.771101,-6661.853478,-78601.398095
8917.495623,5181.441594,-7698.141797,-79367.493593
8917.498181,-1036.288319,-5921.647536,-78448.178995
8917.500738,-6365.771101,-5921.647536,-75690.235202
8917.503296,1628.453072,7402.059420,-75537.016103
8917.505853,11843.295072,10066.800811,-79980.369991
8917.508411,12139.377449,17172.777854,-75843.454302
8917.510968,1184.329507,9178.553681,-78754.617194
8917.513525,9770.718434,1628.453072,-77069.207099
8917.516060,-2368.659014,-3701.029710,-74617.701505
8917.518594,-3701.029710,-2960.823768,-76915.987999
8917.521129,4293.194464,-148.041188,-81359.341888
8917.523663,10066.800811,-592.164754,-78754.617194
8917.526198,-148.041188,888.247130,-76609.549800
8917.528732,-1184.329507,4441.235652,-74924.139704
8917.531266,4145.153275,2220.617826,-75996.673402
8917.533801,1332.370696,1924.535449,-77528.864398
8917.536335,4145.153275,5329.482782,-79520.712692
8917.538870,15840.407159,3552.988522,-78907.836294
8917.541404,8882.471304,4885.359217,-75230.577904
8917.543938,2072.576638,1776.494261,-74770.920605
8917.546473,4885.359217,6809.894666,-77835.302597
8917.549007,7105.977043,5329.482782,-77222.426198
8917.551542,-10955.047942,3108.864956,-77682.083497
8917.554076,-15692.365970,-4441.235652,-80593.246390
8917.556611,-5773.606348,-17320.819043,-76915.987999
8917.559145,-6809.894666,-18061.024985,-74464.482406
8917.561679,-592.164754,-13175.665768,-77682.083497
8917.564214,5033.400406,-6661.853478,-78601.398095
8917.566748,-2516.700203,0.000000,-79367.493593
8917.569283,-9030.512492,1628.453072,-75996.673402
8917.571817,-6513.812290,0.000000,-77835.302597
8917.574351,296.082377,-4145.153275,-75690.235202
8917.576886,-888.247130,-2072.576638,-75383.797003
8917.579420,-444.123565,-3997.112087,-80746.465489
8917.581955,1184.329507,-6217.729913,-77528.864398
8917.584489,-12731.542202,-10362.883188,-77222.426198
8917.587024,-7105.977043,-4885.359217,-76149.892501
8917.589558,-7698.141797,-10362.883188,-78754.617194
8917.592092,-3108.864956,-5033.400406,-76303.111601
8917.594627,-3701.029710,-6809.894666,-78294.959896
8917.597161,1628.453072,-5033.400406,-79214.274493
8917.599696,-4589.276840,-5625.565159,-76456.330700
8917.602230,1332.370696,5773.606348,-75383.797003
8917.604764,8882.471304,11103.089130,-78601.398095
8917.607299,11843.295072,14952.160028,-77528.864398
8917.609833,2072.576638,10510.924376,-76456.330700
8917.612368,7698.141797,5181.441594,-75843.454302
8917.614902,2664.741391,-2812.782580,-77222.426198
8917.617447,-1036.288319,-4737.318029,-77222.426198
8917.619991,444.123565,-1184.329507,-79673.931792
8917.622536,5477.523971,148.041188,-80286.808190
8917.625080,4145.153275,1184.329507,-76609.549800
8917.627625,-6513.812290,3256.906145,-75537.016103
8917.630169,5773.606348,2960.823768,-75843.454302
8917.632714,1628.453072,1480.411884,-78448.178995
8917.635258,3552.988522,5477.523971,-78448.178995
8917.637803,9918.759623,5477.523971,-79214.274493
8917.640347,14952.160028,4293.194464,-77528.864398
8917.642892,296.082377,1776.494261,-75230.577904
8917.645436,-296.082377,4737.318029,-76456.330700
8917.647981,9770.718434,6217.729913,-78294.959896
8917.650525,-9918.759623,2220.617826,-77682.083497
8917.653070,-18653.189738,-4885.359217,-79214.274493
8917.655615,-7550.100608,-19393.395680,-79061.055394
8917.658159,3404.947333,-16728.654289,-74004.825107
8917.660704,-3404.947333,-15100.201217,-75383.797003
8917.663248,3404.947333,1776.494261,-78294.959896
8917.665793,1776.494261,592.164754,-79827.150892
8917.668337,-6661.853478,-888.247130,-75230.577904
8917.670882,-10807.006753,-444.123565,-77375.645298
8917.673426,3849.070898,-2220.617826,-76149.892501
8917.675971,148.041188,-4589.276840,-78294.959896
8917.678515,-5625.565159,-2812.782580,-77988.521696
8917.681060,-1480.411884,-3997.112087,-79061.055394
8917.683604,-8586.388927,-11251.130318,-76609.549800
8917.686149,-15248.242405,-7846.182985,-73698.386908
8917.688693,-7698.141797,-8882.471304,-79520.712692
8917.691238,1776.494261,-6957.935855,-77069.207099
8917.693782,-1924.535449,-6809.894666,-76456.330700
8917.696327,-6069.688724,-5033.400406,-78601.398095
8917.698871,2812.782580,-3701.029710,-76915.987999
8917.701416,2368.659014,5921.647536,-74004.825107
8917.703961,6365.771101,17172.777854,-77528.864398
8917.706505,9770.718434,13027.624579,-80133.589091
8917.709050,8438.347739,9030.512492,-75690.235202
8917.711594,-2664.741391,-1776.494261,-75843.454302
8917.714139,1480.411884,-3108.864956,-76149.892501
8917.716683,2072.576638,-5921.647536,-78294.959896
8917.719237,1480.411884,-1776.494261,-79367.493593
8917.721790,3108.864956,2220.617826,-79673.931792
8917.724344,4441.235652,148.041188,-75383.797003
8917.726897,3256.906145,5181.441594,-71553.319513
8917.729450,-6513.812290,3256.906145,-77222.426198
8917.732004,10955.047942,5477.523971,-79827.150892
8917.734557,10658.965565,1036.288319,-80286.808190
8917.737110,10955.047942,6661.853478,-75230.577904
8917.739664,9622.677246,2220.617826,-78601.398095
8917.742217,3997.112087,3849.070898,-75537.016103
8917.744770,-888.247130,7254.018232,-76303.111601
8917.747324,2812.782580,6513.812290,-79367.493593
8917.749877,-11103.089130,-6069.688724,-79827.150892
8917.752430,-10066.800811,-11843.295072,-75843.454302
8917.754984,-11103.089130,-18653.189738,-76915.987999
8917.757537,5329.482782,-16876.695478,-77528.864398
8917.760090,-296.082377,-9622.677246,-76762.768900
8917.762644,-2812.782580,3997.112087,-78754.617194
8917.765197,-3849.070898,1776.494261,-80593.246390
8917.767750,-5033.400406,-1332.370696,-74004.825107
8917.770304,-6957.935855,-888.247130,-75077.358804
8917.772857,-1628.453072,-1480.411884,-77375.645298
8917.775410,6069.688724,-5625.565159,-79827.150892
8917.777964,-4885.359217,-4589.276840,-75843.454302
8917.780517,-11399.171507,-10658.965565,-78141.740796
8917.783071,-4885.359217,-7550.100608,-75996.673402
8917.785624,-12583.501014,-8290.306550,-74924.139704
8917.788177,-6217.729913,-6069.688724,-78294.959896
8917.790731,2960.823768,-7698.141797,-79980.369991
8917.793284,1480.411884,-5329.482782,-77375.645298
8917.795837,-8142.265362,-4885.359217,-75230.577904
8917.798391,6217.729913,6957.935855,-76762.768900
8917.800944,11843.295072,11843.295072,-78601.398095
8917.803497,7402.059420,15544.324782,-77069.207099
8917.806051,2664.741391,8290.306550,-79980.369991
8917.808604,8586.388927,2516.700203,-75230.577904
8917.811157,-1480.411884,-6365.771101,-75537.016103
8917.813711,-3256.906145,-1776.494261,-77682.083497
8917.816264,8734.430116,-3552.988522,-80746.465489
8917.818817,4441.235652,-2220.617826,-78907.836294
8917.821377,-888.247130,4589.276840,-75996.673402
8917.823937,-1628.453072,740.205942,-75843.454302
8917.826497,6217.729913,5773.606348,-73851.606007
8917.829057,-1480.411884,1480.411884,-78448.178995
8917.831617,10658.965565,6513.812290,-80286.808190
8917.834176,16876.695478,1184.329507,-79214.274493
8917.836736,5329.482782,5181.441594,-74770.920605
8917.839296,1036.288319,3997.112087,-75996.673402
8917.841856,5773.606348,5329.482782,-78448.178995
8917.844416,-1480.411884,4293.194464,-77222.426198
8917.846976,-21169.889941,-2812.782580,-77375.645298
8917.849536,-9326.594869,-10658.965565,-78907.836294
8917.852096,-3701.029710,-21762.054695,-77069.207099
8917.854655,-2664.741391,-16284.530724,-74464.482406
8917.857215,2072.576638,-10066.800811,-79520.712692
8917.859775,4589.276840,-148.041188,-78448.178995
8917.862335,-7846.182985,2812.782580,-77835.302597
8917.864895,-13027.624579,-1184.329507,-74311.263306
8917.867455,5181.441594,-3849.070898,-77528.864398
8917.870015,2664.741391,-4293.194464,-77069.207099
8917.872575,-2072.576638,-3552.988522,-78448.178995
8917.875134,-3256.906145,-4145.153275,-79214.274493
8917.877694,-3849.070898,-10807.006753,-76149.892501
8917.880254,-14952.160028,-7846.182985,-75230.577904
8917.882814,-8586.388927,-6069.688724,-76303.111601
8917.885374,4293.194464,-10066.800811,-79061.055394
8917.887934,1184.329507,-5181.441594,-77682.083497
8917.890494,-8882.471304,-4737.318029,-77988.521696
8917.893054,2220.617826,-3552.988522,-78294.959896
8917.895613,6217.729913,7254.018232,-75690.235202
8917.898173,5329.482782,12731.542202,-77988.521696
8917.900733,9918.759623,14952.160028,-80133.589091
8917.903293,9918.759623,7994.224174,-76762.768900
8917.905853,-2072.576638,2664.741391,-74924.139704
8917.908413,-4145.153275,-2516.700203,-76915.987999
8917.910973,2812.782580,-1480.411884,-80440.027290
8917.913533,8142.265362,-1924.535449,-78294.959896
8917.916092,-1480.411884,148.041188,-75843.454302
8917.918652,148.041188,3404.947333,-77835.302597
8917.921212,444.123565,2516.700203,-74617.701505
8917.923778,-2220.617826,1776.494261,-75383.797003
8917.926343,6957.935855,6513.812290,-80746.465489
8917.928909,15692.365970,2516.700203,-79520.712692
8917.931475,8438.347739,3849.070898,-75077.358804
8917.934040,-2220.617826,4737.318029,-75843.454302
8917.936606,7846.182985,4589.276840,-77682.083497
8917.939171,1776.494261,6809.894666,-77375.645298
8917.941737,-15100.201217,1036.288319,-78294.959896
8917.944302,-14508.036463,-5181.441594,-79520.712692
8917.946868,-6661.853478,-15544.324782,-75077.358804
8917.949434,-4589.276840,-20725.766376,-74924.139704
8917.951999,2368.659014,-13767.830521,-78754.617194
8917.954565,2368.659014,-5921.647536,-77988.521696
8917.957130,-3108.864956,3552.988522,-77835.302597
8917.959696,-13027.624579,1924.535449,-75996.673402
8917.962261,-1480.411884,-2664.741391,-75843.454302
8917.964827,6513.812290,-5329.482782,-76609.549800
8917.967393,-5921.647536,-4589.276840,-78448.178995
8917.969958,3552.988522,-1924.535449,-79520.712692
8917.972524,-7846.182985,-7402.059420,-78294.959896
8917.975089,-10955.047942,-10955.047942,-76303.111601
8917.977655,-11547.212695,-6513.812290,-76456.330700
8917.980220,1924.535449,-8290.306550,-76456.330700
8917.982786,444.123565,-4885.359217,-77069.207099
8917.985352,-7550.100608,-5921.647536,-79367.493593
8917.987917,-592.164754,-5181.441594,-78448.178995
8917.990483,4589.276840,3849.070898,-75230.577904
8917.993048,4589.276840,10510.924376,-78141.740796
8917.995614,13915.871710,14656.077652,-79520.712692
8917.998179,8734.430116,11991.336260,-75383.797003
8918.000745,2812.782580,4441.235652,-76303.111601
8918.003311,-4885.359217,-1036.288319,-77682.083497
8918.005852,6365.771101,-4145.153275,-78448.178995
8918.008394,2664.741391,-2516.700203,-79367.493593
8918.010935,1184.329507,1776.494261,-79520.712692
8918.013477,9030.512492,-444.123565,-77835.302597
8918.016018,-1628.453072,296.082377,-73545.167808
8918.018560,-2516.700203,4737.318029,-76149.892501
8918.021101,5921.647536,3849.070898,-80133.589091
8918.023643,11695.253884,6217.729913,-78754.617194
8918.026185,9326.594869,1628.453072,-77375.645298
8918.028726,7698.141797,4737.318029,-75843.454302
8918.031268,8734.430116,1776.494261,-77222.426198
8918.033809,148.041188,5773.606348,-75077.358804
8918.036351,-6809.894666,5477.523971,-80133.589091
8918.038892,-12583.501014,-6069.688724,-78907.836294
8918.041434,-13471.748144,-10066.800811,-74924.139704
8918.043975,-7402.059420,-18653.189738,-78141.740796
8918.046517,2368.659014,-12879.583391,-76456.330700
8918.049059,2960.823768,-8882.471304,-79061.055394
8918.051600,-5773.606348,1628.453072,-77682.083497
8918.054142,-1924.535449,3256.906145,-78294.959896
8918.056683,-7402.059420,-1480.411884,-75230.577904
8918.059225,296.082377,-2516.700203,-74004.825107
8918.061766,-740.205942,-4293.194464,-78907.836294
8918.064308,4885.359217,-3849.070898,-77682.083497
8918.066849,-7846.182985,-8290.306550,-78141.740796
8918.069391,-13915.871710,-8586.388927,-76762.768900
8918.071933,-9918.759623,-7698.141797,-76762.768900
8918.074474,-7105.977043,-7846.182985,-75383.797003
8918.077016,-4589.276840,-6661.853478,-76149.892501
8918.079557,3701.029710,-4145.153275,-79673.931792
8918.082099,-4145.153275,-7846.182985,-78754.617194
8918.084640,-592.164754,2072.576638,-75537.016103
8918.087182,7254.018232,8882.471304,-77375.645298
8918.089723,13027.624579,16432.571912,-77222.426198
8918.092265,5921.647536,8882.471304,-77069.207099
8918.094807,3552.988522,6809.894666,-75230.577904
8918.097348,2516.700203,-2368.659014,-77069.207099
8918.099890,444.123565,-4145.153275,-75077.358804
8918.102431,-1036.288319,-3552.988522,-80133.589091
8918.104973,7402.059420,2368.659014,-80593.246390
8918.107523,2220.617826,2368.659014,-77375.645298
8918.110074,-3256.906145,-148.041188,-71859.757712
8918.112624,1480.411884,4441.235652,-76303.111601
8918.115175,10807.006753,5477.523971,-78141.740796
8918.117725,10658.965565,6365.771101,-79061.055394
8918.120276,11547.212695,5033.400406,-80286.808190
8918.122827,12583.501014,296.082377,-77988.521696
8918.125377,6365.771101,5181.441594,-73391.948708
8918.127928,-3552.988522,7846.182985,-76149.892501
8918.130478,1332.370696,4293.194464,-79827.150892
8918.133029,-17764.942608,-2812.782580,-77682.083497
8918.135579,-14359.995275,-9918.759623,-78141.740796
8918.138130,-6365.771101,-18209.066173,-77069.207099
8918.140680,8142.265362,-17172.777854,-76456.330700
8918.143231,-1332.370696,-10214.842000,-77069.207099
8918.145782,-4885.359217,2664.741391,-79061.055394
8918.148332,-5181.441594,3849.070898,-79520.712692
8918.150883,-6365.771101,888.247130,-73851.606007
8918.153433,-4885.359217,-4589.276840,-76915.987999
8918.155984,5773.606348,-1776.494261,-77682.083497
8918.158534,1628.453072,-6069.688724,-79061.055394
8918.161085,-11991.336260,-8142.265362,-77069.207099
8918.163635,-9474.636058,-9474.636058,-77069.207099
8918.166186,-8586.388927,-10066.800811,-77069.207099
8918.168737,-11251.130318,-6957.935855,-76149.892501
8918.171287,-1036.288319,-3997.112087,-77375.645298
8918.173838,2664.741391,-9178.553681,-79673.931792
8918.176388,-4145.153275,-3997.112087,-75383.797003
8918.178939,-740.205942,3552.988522,-78294.959896
8918.181489,14508.036463,7994.224174,-78601.398095
8918.184040,11843.295072,14804.118840,-77835.302597
8918.186590,1480.411884,7402.059420,-76456.330700
8918.189141,8734.430116,6809.894666,-76762.768900
8918.191691,3256.906145,-4293.194464,-75230.577904
8918.194242,-3108.864956,-1480.411884,-74924.139704
8918.196793,740.205942,-2072.576638,-82585.094684
8918.199343,10955.047942,-2368.659014,-79214.274493
8918.201894,-148.041188,-1628.453072,-76303.111601
8918.204444,-740.205942,7402.059420,-74311.263306
8918.206995,1924.535449,2220.617826,-77375.645298
8918.209553,9474.636058,7254.018232,-76762.768900
8918.212111,5477.523971,4737.318029,-79520.712692
8918.214669,16136.489536,7254.018232,-78907.836294
8918.217228,8438.347739,-3552.988522,-77222.426198
8918.219786,1332.370696,3997.112087,-74004.825107
8918.222344,2664.741391,7846.182985,-77375.645298
8918.224902,-5329.482782,2220.617826,-77988.521696
8918.227460,-22502.260637,-3997.112087,-76149.892501
8918.230019,-12583.501014,-14063.912898,-78754.617194
8918.232577,2516.700203,-18505.148550,-76915.987999
8918.235135,2960.823768,-14804.118840,-76303.111601
8918.237693,-3404.947333,-5181.441594,-76915.987999
8918.240251,1924.535449,2812.782580,-80286.808190
8918.242810,-10066.800811,3849.070898,-77988.521696
8918.245368,-9474.636058,-2516.700203,-74311.263306
8918.247926,2220.617826,-2072.576638,-77222.426198
8918.250484,7846.182985,-3552.988522,-78754.617194
8918.253042,-4885.359217,-5773.606348,-77988.521696
8918.255600,-11251.130318,-7994.224174,-77835.302597
8918.258159,-7254.018232,-13323.706956,-79061.055394
8918.260717,-12731.542202,-6661.853478,-73851.606007
8918.263275,-9326.594869,-6661.853478,-76456.330700
8918.265833,4737.318029,-7994.224174,-79367.493593
8918.268391,-1184.329507,-5181.441594,-78907.836294
8918.270950,-4737.318029,-1036.288319,-77222.426198
8918.273508,7105.977043,9030.512492,-79061.055394
8918.276066,15840.407159,14359.995275,-78601.398095
8918.278624,2960.823768,12287.418637,-75537.016103
8918.281182,4589.276840,7254.018232,-78448.178995
8918.283741,7698.141797,148.041188,-76609.549800
8918.286299,1628.453072,-3404.947333,-74311.263306
8918.288857,-6365.771101,-1036.288319,-79214.274493
8918.291415,7698.141797,-740.205942,-81972.218286
8918.293973,4885.359217,-1628.453072,-78141.740796
8918.296532,-5033.400406,740.205942,-72319.415011
8918.299090,296.082377,2812.782580,-76303.111601
8918.301648,7105.977043,5329.482782,-77988.521696
8918.304206,5181.441594,5921.647536,-78907.836294
8918.306764,12287.418637,5773.606348,-80286.808190
8918.309323,14211.954086,1036.288319,-78294.959896
8918.311858,3997.112087,4885.359217,-73851.606007
8918.314394,-1776.494261,3849.070898,-77375.645298
8918.316929,4885.359217,5625.565159,-77375.645298
8918.319465,-17468.860231,-2812.782580,-77988.521696
8918.322001,-17320.819043,-9030.512492,-77375.645298
8918.324536,-2368.659014,-18061.024985,-79980.369991
8918.327072,4589.276840,-18653.189738,-77528.864398
8918.329607,3701.029710,-5773.606348,-76303.111601
8918.332143,-9178.553681,1480.411884,-79061.055394
8918.334679,592.164754,1628.453072,-79214.274493
8918.337214,-7105.977043,444.123565,-76915.987999
8918.339750,-444.123565,-2516.700203,-73698.386908
8918.342285,2664.741391,-4885.359217,-78601.398095
8918.344821,888.247130,-5625.565159,-79673.931792
8918.347356,-7550.100608,-9770.718434,-76303.111601
8918.349892,-13767.830521,-9770.718434,-77375.645298
8918.352428,-7550.100608,-10955.047942,-77528.864398
8918.354963,-3108.864956,-5477.523971,-75383.797003
8918.357499,-4293.194464,-5477.523971,-77069.207099
8918.360034,2812.782580,-6069.688724,-79061.055394
8918.362570,-2516.700203,-1776.494261,-77375.645298
8918.365106,1480.411884,9474.636058,-76915.987999
8918.367641,11695.253884,15396.283594,-78141.740796
8918.370177,9178.553681,11399.171507,-79061.055394
8918.372712,4885.359217,5773.606348,-76149.892501
8918.375248,296.082377,-148.041188,-77682.083497
8918.377784,4441.235652,-2664.741391,-75996.673402
8918.380319,-444.123565,-4885.359217,-78141.740796
8918.382855,-2072.576638,888.247130,-80440.027290
8918.385390,5033.400406,592.164754,-78294.959896
8918.387926,3404.947333,1036.288319,-73698.386908
8918.390462,-7994.224174,-296.082377,-75230.577904
8918.392997,6809.894666,7254.018232,-77528.864398
8918.395533,10214.842000,6217.729913,-78601.398095
8918.398068,10362.883188,5921.647536,-76762.768900
8918.400604,10658.965565,1924.535449,-78754.617194
8918.403140,10214.842000,2220.617826,-76149.892501
8918.405675,1628.453072,5033.400406,-73698.386908
8918.408211,-8438.347739,4293.194464,-78448.178995
8918.410746,-14211.954086,-3108.864956,-78907.836294
8918.413292,-8734.430116,-13323.706956,-77375.645298
8918.415838,-5921.647536,-18801.230927,-77069.207099
8918.418384,5625.565159,-13323.706956,-76303.111601
8918.420930,2220.617826,-10658.965565,-76762.768900
8918.423476,-5329.482782,0.000000,-77069.207099
8918.426022,-7846.182985,4145.153275,-79980.369991
8918.428568,-5773.606348,3404.947333,-75537.016103
8918.431114,-2812.782580,-6365.771101,-75537.016103
8918.433660,-3404.947333,-8142.265362,-77835.302597
8918.436206,3256.906145,-4293.194464,-78294.959896
8918.438752,-7402.059420,-9030.512492,-76303.111601
8918.441298,-14952.160028,-10510.924376,-77069.207099
8918.443844,-11103.089130,-10214.842000,-78754.617194
8918.446390,-5181.441594,-5477.523971,-75690.235202
8918.448936,-2664.741391,-6809.894666,-77222.426198
8918.451482,1332.370696,-3108.864956,-79214.274493
8918.454028,1184.329507,-2368.659014,-77528.864398
8918.456574,5033.400406,8734.430116,-76915.987999
8918.459120,2664.741391,15692.365970,-78448.178995
8918.461666,10510.924376,11547.212695,-78294.959896
8918.464212,7698.141797,5181.441594,-76303.111601
