#time,accel_x,accel_y,accel_z
10448.852728,3256.906145,-1628.453072,-77375.645298
10448.855309,3997.112087,-2220.617826,-77835.302597
10448.857890,-4441.235652,1480.411884,-78141.740796
10448.860471,2664.741391,-1332.370696,-78754.617194
10448.863052,3404.947333,-2664.741391,-77528.864398
10448.865633,-3108.864956,2664.741391,-77682.083497
10448.868213,1776.494261,-4885.359217,-78601.398095
10448.870794,2664.741391,-148.041188,-77222.426198
10448.873375,-1036.288319,-148.041188,-76762.768900
10448.875956,-4737.318029,-3552.988522,-78601.398095
10448.878537,2368.659014,-1332.370696,-77375.645298
10448.881118,-2664.741391,-8586.388927,-79061.055394
10448.883699,1480.411884,-1924.535449,-77835.302597
10448.886280,9474.636058,-7846.182985,-78294.959896
10448.888861,-148.041188,-3552.988522,-78141.740796
10448.891442,5329.482782,-5181.441594,-78448.178995
10448.894023,3256.906145,-4737.318029,-78141.740796
10448.896603,1924.535449,-4441.235652,-77069.207099
10448.899184,1184.329507,-2812.782580,-78601.398095
10448.901765,7550.100608,-3256.906145,-78141.740796
10448.904346,-1332.370696,148.041188,-77528.864398
10448.906927,-8734.430116,10214.842000,-77069.207099
10448.909508,-3849.070898,-1924.535449,-78448.178995
10448.912089,-3552.988522,1924.535449,-74924.139704
10448.914670,-592.164754,592.164754,-76762.768900
10448.917251,1480.411884,-1480.411884,-78294.959896
10448.919832,2220.617826,1332.370696,-76762.768900
10448.922412,-10362.883188,-444.123565,-77375.645298
10448.924993,-2516.700203,3256.906145,-76149.892501
10448.927574,-3404.947333,3701.029710,-78141.740796
10448.930155,-3108.864956,3997.112087,-77222.426198
10448.932736,6809.894666,4441.235652,-78294.959896
10448.935317,2812.782580,-4145.153275,-77528.864398
10448.937898,-8586.388927,0.000000,-76915.987999
10448.940479,-2516.700203,444.123565,-80133.589091
10448.943060,1628.453072,-592.164754,-79214.274493
10448.945501,444.123565,-2812.782580,-77375.645298
10448.947943,-5329.482782,2812.782580,-77222.426198
10448.950384,3404.947333,-740.205942,-76915.987999
10448.952826,-5181.441594,2368.659014,-78754.617194
10448.955267,-4441.235652,4441.235652,-78754.617194
10448.957708,-1036.288319,-2072.576638,-78907.836294
10448.960150,-4145.153275,2072.576638,-77069.207099
10448.962591,-6809.894666,2368.659014,-77069.207099
10448.965033,148.041188,444.123565,-79061.055394
10448.967474,0.000000,5181.441594,-77375.645298
10448.969916,-1184.329507,3256.906145,-77835.302597
10448.972357,9326.594869,-2368.659014,-76915.987999
10448.974799,-1480.411884,-9326.594869,-78294.959896
10448.977240,-13915.871710,3256.906145,-76915.987999
10448.979682,-5921.647536,1628.453072,-78907.836294
10448.982123,2960.823768,1776.494261,-77375.645298
10448.984565,3108.864956,6957.935855,-75843.454302
10448.987006,1628.453072,2960.823768,-79061.055394
10448.989448,3552.988522,-2812.782580,-76149.892501
10448.991889,-3997.112087,-8142.265362,-76609.549800
10448.994330,-3849.070898,-5033.400406,-77069.207099
10448.996772,9474.636058,-9326.594869,-78907.836294
10448.999213,2960.823768,-8142.265362,-78907.836294
10449.001655,7550.100608,-1332.370696,-77069.207099
10449.004096,-1184.329507,888.247130,-77528.864398
10449.006538,-148.041188,2072.576638,-77375.645298
10449.008979,-6069.688724,4145.153275,-79827.150892
10449.011421,6069.688724,-5033.400406,-79367.493593
10449.013862,6661.853478,-6513.812290,-77222.426198
10449.016304,1184.329507,-9622.677246,-77528.864398
10449.018745,3849.070898,-7550.100608,-77375.645298
10449.021187,-444.123565,-7698.141797,-77528.864398
10449.023628,-2960.823768,1036.288319,-78294.959896
10449.026069,3552.988522,2368.659014,-78448.178995
10449.028511,5329.482782,1036.288319,-77069.207099
10449.030952,-1628.453072,-3108.864956,-76915.987999
10449.033394,1184.329507,-8290.306550,-77682.083497
10449.035835,3256.906145,592.164754,-75537.016103
10449.038277,-2516.700203,-7105.977043,-78601.398095
10449.040718,740.205942,1924.535449,-78448.178995
10449.043215,148.041188,-3701.029710,-77222.426198
10449.045712,0.000000,-6365.771101,-77375.645298
10449.048208,-2220.617826,3404.947333,-77528.864398
10449.050705,8882.471304,-9622.677246,-77375.645298
10449.053201,2516.700203,-4145.153275,-76609.549800
10449.055698,3701.029710,-5921.647536,-79367.493593
10449.058195,5181.441594,-1480.411884,-77682.083497
10449.060691,-888.247130,-5625.565159,-77222.426198
10449.063188,-2664.741391,1776.494261,-76609.549800
10449.065684,8438.347739,-3701.029710,-78141.740796
10449.068181,7994.224174,-5625.565159,-78294.959896
10449.070678,-2812.782580,-3108.864956,-77069.207099
10449.073174,148.041188,-4589.276840,-77682.083497
10449.075671,1332.370696,-3701.029710,-77375.645298
10449.078167,-1184.329507,-1184.329507,-77682.083497
10449.080664,5625.565159,1924.535449,-77835.302597
10449.083161,10066.800811,-2220.617826,-79061.055394
10449.085657,-6809.894666,-444.123565,-77528.864398
10449.088154,-5033.400406,-1036.288319,-77375.645298
10449.090650,-7846.182985,-1036.288319,-77069.207099
10449.093147,-740.205942,-2368.659014,-77682.083497
10449.095644,1924.535449,9030.512492,-79214.274493
10449.098140,3849.070898,3404.947333,-77835.302597
10449.100637,-7105.977043,4293.194464,-76915.987999
10449.103133,-5625.565159,-1036.288319,-77375.645298
10449.105630,-2960.823768,-5033.400406,-76762.768900
10449.108127,-1628.453072,-2516.700203,-76609.549800
10449.110623,2368.659014,1036.288319,-78907.836294
10449.113120,6661.853478,592.164754,-76456.330700
10449.115616,-3552.988522,2960.823768,-77835.302597
10449.118113,-12435.459826,7698.141797,-77222.426198
10449.120610,-3701.029710,5625.565159,-77988.521696
10449.123106,4885.359217,148.041188,-77682.083497
10449.125603,-2072.576638,-740.205942,-78601.398095
10449.128100,1480.411884,-2368.659014,-78141.740796
10449.130596,-444.123565,-5477.523971,-78448.178995
10449.133093,-2072.576638,3108.864956,-76303.111601
10449.135589,-5329.482782,2812.782580,-78754.617194
10449.138086,3849.070898,1036.288319,-76762.768900
10449.140583,-3849.070898,2516.700203,-77528.864398
10449.143116,-4145.153275,1628.453072,-78601.398095
10449.145650,-2812.782580,2516.700203,-79061.055394
10449.148184,-9030.512492,-3849.070898,-76609.549800
10449.150718,-5033.400406,5181.441594,-76915.987999
10449.153251,-3108.864956,148.041188,-77682.083497
10449.155785,-9770.718434,5181.441594,-77069.207099
10449.158319,296.082377,6809.894666,-78141.740796
10449.160852,4441.235652,-3997.112087,-80593.246390
10449.163386,-1184.329507,-1036.288319,-75537.016103
10449.165920,-11843.295072,-1184.329507,-77375.645298
10449.168454,-3404.947333,-888.247130,-77528.864398
10449.170987,-2516.700203,3256.906145,-78141.740796
10449.173521,444.123565,5033.400406,-78601.398095
10449.176055,5329.482782,5921.647536,-77375.645298
10449.178589,2960.823768,-2812.782580,-76915.987999
10449.181122,-4145.153275,-8586.388927,-77988.521696
10449.183656,740.205942,-5033.400406,-76915.987999
10449.186190,3849.070898,-6513.812290,-77528.864398
10449.188724,3701.029710,-3849.070898,-78141.740796
10449.191257,3256.906145,-4589.276840,-78294.959896
10449.193791,5181.441594,1184.329507,-75996.673402
10449.196325,-4589.276840,4145.153275,-76303.111601
10449.198859,1924.535449,-888.247130,-78754.617194
10449.201392,5625.565159,-4737.318029,-78907.836294
10449.203926,444.123565,-6809.894666,-78141.740796
10449.206460,2664.741391,-3404.947333,-77988.521696
10449.208994,3997.112087,-10955.047942,-78294.959896
10449.211527,-2812.782580,-6365.771101,-76762.768900
10449.214061,592.164754,1924.535449,-78448.178995
10449.216595,4737.318029,740.205942,-79367.493593
10449.219129,-444.123565,-1036.288319,-77988.521696
10449.221662,-1332.370696,296.082377,-77222.426198
10449.224196,888.247130,-1184.329507,-76762.768900
10449.226730,6365.771101,-5773.606348,-77682.083497
10449.229264,-3701.029710,740.205942,-78294.959896
10449.231797,6365.771101,-3404.947333,-79061.055394
10449.234331,4737.318029,-3108.864956,-79214.274493
10449.236865,-1480.411884,-7994.224174,-76609.549800
10449.239399,2220.617826,-1776.494261,-75996.673402
10449.241932,7254.018232,-7105.977043,-77835.302597
10449.244491,2516.700203,-4885.359217,-78601.398095
10449.247050,-1184.329507,-1480.411884,-78294.959896
10449.249608,6809.894666,-2960.823768,-76609.549800
10449.252167,5625.565159,-5773.606348,-76303.111601
10449.254726,-444.123565,-740.205942,-76609.549800
10449.257284,6069.688724,-5773.606348,-79367.493593
10449.259843,296.082377,-3849.070898,-77528.864398
10449.262402,-4589.276840,-1628.453072,-77528.864398
10449.264960,4293.194464,-4737.318029,-78754.617194
10449.267519,8142.265362,1628.453072,-75843.454302
10449.270078,-1628.453072,148.041188,-77835.302597
10449.272636,2368.659014,-1480.411884,-78448.178995
10449.275195,-4737.318029,-1184.329507,-78294.959896
10449.277754,-12139.377449,-148.041188,-76609.549800
10449.280313,-888.247130,3552.988522,-77375.645298
10449.282871,6661.853478,-296.082377,-80286.808190
10449.285430,-3404.947333,8290.306550,-77528.864398
10449.287989,-2960.823768,4441.235652,-77988.521696
10449.290547,-4145.153275,2368.659014,-78141.740796
10449.293106,-3849.070898,-5329.482782,-77988.521696
10449.295665,-7402.059420,-1036.288319,-78294.959896
10449.298223,9178.553681,-4885.359217,-79673.931792
10449.300782,444.123565,-2812.782580,-77988.521696
10449.303341,-5773.606348,5625.565159,-77222.426198
10449.305899,-3552.988522,888.247130,-78601.398095
10449.308458,-2220.617826,4441.235652,-75230.577904
10449.311017,-4293.194464,6069.688724,-77835.302597
10449.313575,1924.535449,-148.041188,-78141.740796
10449.316134,2812.782580,-5477.523971,-78448.178995
10449.318693,-4441.235652,-1924.535449,-76762.768900
10449.321251,-888.247130,-1480.411884,-77528.864398
10449.323810,444.123565,1924.535449,-76915.987999
10449.326369,-4885.359217,0.000000,-76456.330700
10449.328927,-1184.329507,4441.235652,-77069.207099
10449.331486,-1184.329507,592.164754,-77988.521696
10449.334045,-5921.647536,6513.812290,-77069.207099
10449.336604,-6957.935855,2368.659014,-79673.931792
10449.339162,-4885.359217,-2368.659014,-77375.645298
10449.341721,-8734.430116,2516.700203,-76609.549800
10449.344280,2072.576638,5033.400406,-78141.740796
10449.346754,4589.276840,-2812.782580,-78141.740796
10449.349228,-2220.617826,-1924.535449,-77528.864398
10449.351703,-9622.677246,4441.235652,-78754.617194
10449.354177,-6957.935855,1184.329507,-77835.302597
10449.356652,-9326.594869,1628.453072,-76915.987999
10449.359126,-2368.659014,3108.864956,-79061.055394
10449.361600,5033.400406,4885.359217,-78601.398095
10449.364075,11399.171507,-148.041188,-76915.987999
10449.366549,-148.041188,-7402.059420,-76762.768900
10449.369024,2664.741391,-10807.006753,-78754.617194
10449.371498,1036.288319,-5033.400406,-77069.207099
10449.373972,0.000000,-5181.441594,-78601.398095
10449.376447,7550.100608,-2664.741391,-77988.521696
10449.378921,6809.894666,-296.082377,-76915.987999
10449.381396,-2960.823768,0.000000,-76915.987999
10449.383870,740.205942,3256.906145,-77835.302597
10449.386344,3256.906145,-5477.523971,-77375.645298
10449.388819,-1480.411884,-4885.359217,-75996.673402
10449.391293,4737.318029,-6661.853478,-78448.178995
10449.393768,6661.853478,-10066.800811,-77375.645298
10449.396242,444.123565,-888.247130,-75843.454302
10449.398717,148.041188,-2960.823768,-77988.521696
10449.401191,3256.906145,-296.082377,-76149.892501
10449.403665,148.041188,-2368.659014,-77222.426198
10449.406140,-3701.029710,2072.576638,-76915.987999
10449.408614,4885.359217,-4293.194464,-78294.959896
10449.411089,3997.112087,-5033.400406,-78448.178995
10449.413563,-7254.018232,-1184.329507,-79673.931792
10449.416037,3701.029710,-7994.224174,-78141.740796
10449.418512,3849.070898,-3108.864956,-77069.207099
10449.420986,-3849.070898,-2072.576638,-77222.426198
10449.423461,6513.812290,-2516.700203,-76149.892501
10449.425935,9622.677246,-5773.606348,-78294.959896
10449.428409,296.082377,-444.123565,-78448.178995
10449.430884,4589.276840,-3701.029710,-79520.712692
10449.433358,5477.523971,-6661.853478,-78754.617194
10449.435833,4293.194464,-3997.112087,-76303.111601
10449.438307,1628.453072,-4737.318029,-78448.178995
10449.440781,3552.988522,-4441.235652,-78141.740796
10449.443256,-5477.523971,-1776.494261,-77222.426198
10449.445770,-592.164754,1628.453072,-78294.959896
10449.448283,7402.059420,-3108.864956,-77835.302597
10449.450797,592.164754,-740.205942,-76762.768900
10449.453311,2812.782580,-2220.617826,-76762.768900
10449.455825,-4589.276840,-3997.112087,-77682.083497
10449.458339,-7402.059420,2368.659014,-75996.673402
10449.460852,-3108.864956,1924.535449,-78448.178995
10449.463366,4737.318029,-444.123565,-78601.398095
10449.465880,-1628.453072,7994.224174,-76303.111601
10449.468394,-7550.100608,3997.112087,-77988.521696
10449.470908,-1924.535449,3404.947333,-77988.521696
10449.473421,-1184.329507,-592.164754,-77375.645298
10449.475935,-7550.100608,-592.164754,-76609.549800
10449.478449,2960.823768,-4589.276840,-79214.274493
10449.480963,3404.947333,-1924.535449,-77222.426198
10449.483477,-4885.359217,4441.235652,-77682.083497
10449.485990,-6661.853478,2516.700203,-78754.617194
10449.488504,-3997.112087,7550.100608,-78141.740796
10449.491018,-1776.494261,1184.329507,-78294.959896
10449.493532,-2516.700203,1184.329507,-77528.864398
10449.496046,3404.947333,-5477.523971,-78294.959896
10449.498559,-4145.153275,-5181.441594,-76456.330700
10449.501073,-2220.617826,444.123565,-79980.369991
10449.503587,1628.453072,-444.123565,-78294.959896
10449.506101,-5181.441594,-2516.700203,-77835.302597
10449.508614,-1776.494261,9030.512492,-77375.645298
10449.511128,1036.288319,3256.906145,-77069.207099
10449.513642,-740.205942,444.123565,-78448.178995
10449.516156,-12139.377449,3108.864956,-78601.398095
10449.518670,1184.329507,-1036.288319,-76762.768900
10449.521183,1776.494261,-1036.288319,-76456.330700
10449.523697,2368.659014,296.082377,-76456.330700
10449.526211,1036.288319,-4145.153275,-78448.178995
10449.528725,-3997.112087,592.164754,-77222.426198
10449.531239,-15396.283594,5329.482782,-78448.178995
10449.533752,-1332.370696,6217.729913,-78141.740796
10449.536266,6661.853478,1480.411884,-77835.302597
10449.538780,-5033.400406,3256.906145,-77528.864398
10449.541294,11547.212695,-888.247130,-76456.330700
10449.543808,6365.771101,-11695.253884,-76303.111601
10449.546350,-6661.853478,-5477.523971,-76609.549800
10449.548892,-1332.370696,-6365.771101,-79673.931792
10449.551435,6365.771101,-8290.306550,-79061.055394
10449.553977,-148.041188,-740.205942,-76609.549800
10449.556520,-444.123565,5477.523971,-78141.740796
10449.559062,4145.153275,1184.329507,-78601.398095
10449.561604,-296.082377,-148.041188,-78754.617194
10449.564147,-5033.400406,-2516.700203,-77682.083497
10449.566689,8142.265362,-9474.636058,-78448.178995
10449.569232,3404.947333,-8586.388927,-78754.617194
10449.571774,-2220.617826,-5477.523971,-78754.617194
10449.574316,7698.141797,-3256.906145,-77528.864398
10449.576859,2072.576638,-1480.411884,-77988.521696
10449.579401,-1332.370696,444.123565,-76609.549800
10449.581944,-2072.576638,1036.288319,-76609.549800
10449.584486,9622.677246,-5477.523971,-78294.959896
10449.587028,-740.205942,-148.041188,-76609.549800
10449.589571,-1480.411884,-6513.812290,-77835.302597
10449.592113,6365.771101,1480.411884,-76456.330700
10449.594656,-4441.235652,-7402.059420,-77835.302597
10449.597198,444.123565,740.205942,-75996.673402
10449.599740,7994.224174,-4589.276840,-78294.959896
10449.602283,4885.359217,-6957.935855,-77069.207099
10449.604825,3256.906145,444.123565,-76456.330700
10449.607367,6069.688724,-6809.894666,-78141.740796
10449.609910,1776.494261,-7254.018232,-75230.577904
10449.612452,444.123565,-3108.864956,-77835.302597
10449.614995,5033.400406,-6809.894666,-76456.330700
10449.617537,-3849.070898,-1332.370696,-77528.864398
10449.620079,-2220.617826,444.123565,-79367.493593
10449.622622,6809.894666,-4293.194464,-78294.959896
10449.625164,5329.482782,-1480.411884,-77835.302597
10449.627646,-4885.359217,592.164754,-77375.645298
10449.630127,3849.070898,-6957.935855,-78754.617194
10449.632609,-6513.812290,-1924.535449,-77682.083497
10449.635090,-7698.141797,3256.906145,-75690.235202
10449.637572,2072.576638,-592.164754,-80133.589091
10449.640053,3997.112087,2664.741391,-78294.959896
10449.642535,-8882.471304,8734.430116,-76915.987999
10449.645016,-888.247130,3701.029710,-77222.426198
10449.647498,740.205942,-740.205942,-79061.055394
10449.649979,1036.288319,-2812.782580,-79367.493593
10449.652461,-4885.359217,-1480.411884,-78601.398095
10449.654942,7994.224174,-3701.029710,-78448.178995
10449.657424,592.164754,148.041188,-75996.673402
10449.659905,-8882.471304,2960.823768,-77682.083497
10449.662386,-6069.688724,4589.276840,-77835.302597
10449.664868,1924.535449,4145.153275,-76456.330700
10449.667349,-3256.906145,3404.947333,-77375.645298
10449.669831,-592.164754,592.164754,-77835.302597
10449.672312,-148.041188,-7698.141797,-76915.987999
10449.674794,-2812.782580,-888.247130,-76915.987999
10449.677275,-1184.329507,3108.864956,-79061.055394
10449.679757,-296.082377,0.000000,-77375.645298
10449.682238,-4145.153275,4145.153275,-75843.454302
10449.684720,-6069.688724,6809.894666,-75996.673402
10449.687201,-1036.288319,3849.070898,-79061.055394
10449.689683,-13619.789333,1332.370696,-78448.178995
10449.692164,-7105.977043,1924.535449,-78294.959896
10449.694646,4885.359217,-4589.276840,-79827.150892
10449.697127,3256.906145,-4145.153275,-77375.645298
10449.699609,-10214.842000,1776.494261,-76762.768900
10449.702090,-5625.565159,1036.288319,-78754.617194
10449.704572,-9178.553681,3701.029710,-78294.959896
10449.707053,-5477.523971,6809.894666,-78754.617194
10449.709535,1776.494261,3552.988522,-79214.274493
10449.712016,3404.947333,2072.576638,-76762.768900
10449.714498,9030.512492,-6217.729913,-75996.673402
10449.716979,-740.205942,-11251.130318,-77682.083497
10449.719461,1184.329507,-7105.977043,-76149.892501
10449.721942,-2664.741391,-7846.182985,-79061.055394
10449.724423,5181.441594,-5625.565159,-78294.959896
10449.726941,3552.988522,2516.700203,-75077.358804
10449.729458,1036.288319,2072.576638,-76609.549800
10449.731975,5181.441594,1480.411884,-78448.178995
10449.734492,3404.947333,-2368.659014,-78448.178995
10449.737009,444.123565,-4441.235652,-75996.673402
10449.739526,-1480.411884,-9622.677246,-78448.178995
10449.742043,6957.935855,-8142.265362,-77375.645298
10449.744560,1480.411884,-9030.512492,-77222.426198
10449.747077,592.164754,2516.700203,-77835.302597
10449.749594,7550.100608,-592.164754,-79520.712692
10449.752111,-5329.482782,444.123565,-76915.987999
10449.754628,-1036.288319,1480.411884,-75996.673402
10449.757145,2516.700203,-6217.729913,-79827.150892
10449.759662,3552.988522,-3849.070898,-78601.398095
10449.762179,-1184.329507,-1628.453072,-78294.959896
10449.764696,-888.247130,-6217.729913,-77988.521696
10449.767213,6809.894666,-2220.617826,-76609.549800
10449.769730,-2960.823768,-4589.276840,-77069.207099
10449.772247,9770.718434,-592.164754,-76456.330700
10449.774764,9622.677246,-6217.729913,-77988.521696
10449.777281,-1036.288319,-1480.411884,-77375.645298
10449.779798,5477.523971,-2664.741391,-77375.645298
10449.782315,2516.700203,-7402.059420,-78601.398095
10449.784832,-5033.400406,-3849.070898,-76149.892501
10449.787349,-1628.453072,-1628.453072,-77835.302597
10449.789866,10066.800811,-1628.453072,-77375.645298
10449.792383,-592.164754,-1332.370696,-78448.178995
10449.794900,-2664.741391,5625.565159,-77682.083497
10449.797417,4737.318029,-9178.553681,-78907.836294
10449.799935,-9622.677246,-5329.482782,-75843.454302
10449.802452,-10510.924376,4885.359217,-77069.207099
10449.804969,740.205942,444.123565,-78448.178995
10449.807486,4589.276840,296.082377,-77835.302597
10449.810003,-7698.141797,8734.430116,-77375.645298
10449.812520,-2072.576638,5773.606348,-76915.987999
10449.815037,-5625.565159,2220.617826,-76609.549800
10449.817554,-9474.636058,1480.411884,-76915.987999
10449.820071,5477.523971,-2368.659014,-79673.931792
10449.822588,3552.988522,-5329.482782,-77375.645298
10449.825105,-2072.576638,1480.411884,-76149.892501
10449.827650,-4145.153275,1480.411884,-77375.645298
10449.830193,-1332.370696,592.164754,-76609.549800
10449.832737,-7698.141797,6217.729913,-76915.987999
10449.835281,-2220.617826,7994.224174,-78754.617194
10449.837824,3552.988522,-1628.453072,-77069.207099
10449.840368,1332.370696,-8290.306550,-77375.645298
10449.842912,-8734.430116,7105.977043,-75843.454302
10449.845455,3404.947333,-3552.988522,-78294.959896
10449.847999,2516.700203,1924.535449,-78141.740796
10449.850542,-5625.565159,5921.647536,-79520.712692
10449.853086,444.123565,-148.041188,-78601.398095
10449.855630,-5625.565159,7994.224174,-77835.302597
10449.858173,-10214.842000,3108.864956,-80593.246390
10449.860717,-2664.741391,-1184.329507,-78294.959896
10449.863261,3256.906145,-4145.153275,-78141.740796
10449.865804,-3997.112087,-1628.453072,-77682.083497
10449.868348,-3849.070898,1480.411884,-77375.645298
10449.870891,-5625.565159,2220.617826,-77988.521696
10449.873435,-9918.759623,3256.906145,-77069.207099
10449.875979,888.247130,3997.112087,-78907.836294
10449.878522,592.164754,7254.018232,-75690.235202
10449.881066,8734.430116,0.000000,-78141.740796
10449.883610,6217.729913,-11251.130318,-78754.617194
10449.886153,5625.565159,-11695.253884,-76456.330700
10449.888697,-6069.688724,-6365.771101,-75690.235202
10449.891241,-2664.741391,-3701.029710,-79673.931792
10449.893784,9326.594869,-6217.729913,-78294.959896
10449.896328,1332.370696,1776.494261,-76609.549800
10449.898871,2664.741391,6217.729913,-77835.302597
10449.901415,4441.235652,-1184.329507,-78294.959896
10449.903959,-1776.494261,-2960.823768,-77222.426198
10449.906502,-1036.288319,-4737.318029,-78294.959896
10449.909046,7402.059420,-11103.089130,-78907.836294
10449.911590,296.082377,-8882.471304,-77528.864398
10449.914133,-3997.112087,-1924.535449,-78141.740796
10449.916677,5773.606348,-296.082377,-78754.617194
10449.919221,3256.906145,-1776.494261,-76762.768900
10449.921764,-2516.700203,3701.029710,-76609.549800
10449.924308,296.082377,-3701.029710,-79061.055394
10449.926851,2516.700203,-1924.535449,-77222.426198
10449.929345,-4885.359217,-3404.947333,-78754.617194
10449.931839,4589.276840,-3997.112087,-78141.740796
10449.934333,4885.359217,-7550.100608,-79061.055394
10449.936827,-592.164754,-6217.729913,-75843.454302
10449.939322,4737.318029,2664.741391,-77682.083497
10449.941816,10510.924376,-7994.224174,-79827.150892
10449.944310,3849.070898,-5625.565159,-77528.864398
10449.946804,2812.782580,-6069.688724,-77835.302597
10449.949298,1332.370696,-4589.276840,-77682.083497
10449.951792,-6069.688724,-2516.700203,-77682.083497
10449.954286,-1036.288319,-592.164754,-77835.302597
10449.956780,9770.718434,-3552.988522,-77988.521696
10449.959274,6809.894666,-592.164754,-77375.645298
10449.961768,-1776.494261,2812.782580,-77528.864398
10449.964262,2516.700203,-7846.182985,-77835.302597
10449.966756,-7550.100608,888.247130,-76609.549800
10449.969250,-7698.141797,2516.700203,-78141.740796
10449.971744,2220.617826,2220.617826,-79061.055394
10449.974238,4737.318029,2072.576638,-76609.549800
10449.976732,-5181.441594,7846.182985,-76915.987999
10449.979226,-2664.741391,3404.947333,-78141.740796
10449.981720,-3552.988522,-1776.494261,-77222.426198
10449.984214,-5329.482782,1628.453072,-75843.454302
10449.986708,296.082377,-1628.453072,-79980.369991
10449.989202,6069.688724,-1924.535449,-77375.645298
10449.991696,-3997.112087,-3552.988522,-77222.426198
10449.994190,-3997.112087,8290.306550,-76609.549800
10449.996684,-7846.182985,-148.041188,-78754.617194
10449.999178,-5773.606348,5181.441594,-77375.645298
10450.001672,592.164754,6809.894666,-79214.274493
10450.004166,592.164754,-2072.576638,-77069.207099
10450.006660,1036.288319,-5033.400406,-77528.864398
10450.009154,-8734.430116,2516.700203,-79367.493593
10450.011648,1776.494261,0.000000,-77988.521696
10450.014142,444.123565,2368.659014,-79214.274493
10450.016636,-5033.400406,5329.482782,-78141.740796
10450.019130,-1776.494261,3108.864956,-78754.617194
10450.021624,-8142.265362,2516.700203,-77835.302597
10450.024118,-7105.977043,4293.194464,-77682.083497
10450.026612,1036.288319,444.123565,-79061.055394
10450.029073,592.164754,-3256.906145,-79520.712692
10450.031535,-9770.718434,1924.535449,-76303.111601
10450.033996,-4589.276840,1628.453072,-77069.207099
10450.036458,-2368.659014,4737.318029,-77682.083497
10450.038919,-4441.235652,4589.276840,-78448.178995
10450.041380,148.041188,6069.688724,-77682.083497
10450.043842,13619.789333,-4145.153275,-75843.454302
10450.046303,3997.112087,-7698.141797,-75843.454302
10450.048764,-5329.482782,-5033.400406,-77375.645298
10450.051226,-296.082377,-10955.047942,-78294.959896
10450.053687,1924.535449,-5625.565159,-77222.426198
10450.056148,-1924.535449,296.082377,-76915.987999
10450.058610,5329.482782,-296.082377,-77835.302597
10450.061071,8438.347739,2960.823768,-75843.454302
10450.063532,-3404.947333,-592.164754,-77375.645298
10450.065994,2664.741391,-1332.370696,-78141.740796
10450.068455,4145.153275,-13471.748144,-80593.246390
10450.070916,296.082377,-7994.224174,-77069.207099
10450.073378,2960.823768,-3701.029710,-78141.740796
10450.075839,4293.194464,-5625.565159,-78141.740796
10450.078300,-3108.864956,2812.782580,-77069.207099
10450.080762,-3849.070898,592.164754,-79520.712692
10450.083223,3256.906145,-5181.441594,-79214.274493
10450.085685,-592.164754,-3552.988522,-77835.302597
10450.088146,-5773.606348,-592.164754,-77988.521696
10450.090607,3256.906145,-5033.400406,-77682.083497
10450.093069,6365.771101,-5477.523971,-77222.426198
10450.095530,-1776.494261,-3849.070898,-77835.302597
10450.097991,10214.842000,-2812.782580,-76915.987999
10450.100453,13619.789333,-7254.018232,-79367.493593
10450.102914,4293.194464,0.000000,-77682.083497
10450.105375,5329.482782,-7994.224174,-77682.083497
10450.107837,1332.370696,-5773.606348,-78141.740796
10450.110298,-6957.935855,-1332.370696,-77682.083497
10450.112759,-888.247130,1332.370696,-76762.768900
10450.115221,12139.377449,-5033.400406,-78448.178995
10450.117682,-888.247130,-444.123565,-76762.768900
10450.120143,5329.482782,-1036.288319,-78754.617194
10450.122605,-3701.029710,-3256.906145,-76609.549800
10450.125066,-12139.377449,-888.247130,-76609.549800
10450.127568,-7105.977043,4737.318029,-78601.398095
10450.130070,3552.988522,1036.288319,-77528.864398
10450.132572,-1184.329507,6217.729913,-77069.207099
10450.135074,-9474.636058,5625.565159,-77069.207099
10450.137576,-6809.894666,2072.576638,-77682.083497
10450.140079,-3404.947333,-2960.823768,-77528.864398
10450.142581,-7698.141797,1036.288319,-78601.398095
10450.145083,8882.471304,-2960.823768,-79214.274493
10450.147585,1480.411884,-740.205942,-77988.521696
10450.150087,-3256.906145,2368.659014,-78294.959896
10450.152589,-5477.523971,148.041188,-78754.617194
10450.155091,-7698.141797,4589.276840,-77988.521696
10450.157593,-3552.988522,3997.112087,-77069.207099
10450.160095,148.041188,-2516.700203,-79827.150892
10450.162597,2072.576638,-1924.535449,-76303.111601
10450.165099,-6069.688724,-2516.700203,-75996.673402
10450.167601,-3997.112087,2664.741391,-77222.426198
10450.170103,2220.617826,2812.782580,-77682.083497
10450.172606,-7846.182985,2220.617826,-77528.864398
10450.175108,-3404.947333,5625.565159,-78141.740796
10450.177610,-3404.947333,-296.082377,-78448.178995
10450.180112,-2960.823768,-1184.329507,-76456.330700
10450.182614,-6069.688724,2072.576638,-77682.083497
10450.185116,1628.453072,-1776.494261,-79061.055394
10450.187618,-5033.400406,-1184.329507,-77835.302597
10450.190120,-7254.018232,4293.194464,-76609.549800
10450.192622,-2220.617826,-444.123565,-77222.426198
10450.195124,-4441.235652,5033.400406,-75537.016103
10450.197626,-3256.906145,6365.771101,-79520.712692
10450.200128,11695.253884,-3849.070898,-77375.645298
10450.202630,7550.100608,-10955.047942,-76762.768900
10450.205133,-7402.059420,-5181.441594,-75383.797003
10450.207635,2072.576638,-9622.677246,-78448.178995
10450.210137,3552.988522,-7698.141797,-77988.521696
10450.212639,0.000000,2220.617826,-77222.426198
10450.215141,4441.235652,-2220.617826,-79367.493593
10450.217643,7994.224174,2368.659014,-76762.768900
10450.220145,-1628.453072,-148.041188,-77222.426198
10450.222647,-2220.617826,-888.247130,-77528.864398
10450.225149,4145.153275,-10066.800811,-79673.931792
10450.227683,-1628.453072,-8734.430116,-77375.645298
10450.230217,6069.688724,-3108.864956,-78294.959896
10450.232750,5625.565159,-7105.977043,-77682.083497
10450.235284,-4441.235652,2664.741391,-75537.016103
10450.237818,740.205942,-148.041188,-77988.521696
10450.240351,3404.947333,-444.123565,-78141.740796
10450.242885,-2220.617826,-5921.647536,-77988.521696
10450.245419,-444.123565,-3997.112087,-78907.836294
10450.247952,6513.812290,-6809.894666,-77375.645298
10450.250486,5625.565159,-9326.594869,-77528.864398
10450.253020,-592.164754,-1184.329507,-75843.454302
10450.255553,11843.295072,-7105.977043,-78448.178995
10450.258087,10510.924376,-1628.453072,-77682.083497
10450.260621,1776.494261,-2664.741391,-78601.398095
10450.263154,2072.576638,-5033.400406,-77988.521696
10450.265688,1036.288319,-2664.741391,-77682.083497
10450.268222,-5033.400406,-4589.276840,-77069.207099
10450.270755,4293.194464,-296.082377,-77375.645298
10450.273289,8142.265362,-1924.535449,-78294.959896
10450.275823,-1184.329507,-5181.441594,-75690.235202
10450.278356,1776.494261,148.041188,-77375.645298
10450.280890,-7402.059420,-3108.864956,-77375.645298
10450.283424,-10362.883188,5773.606348,-76609.549800
10450.285957,-1480.411884,4589.276840,-78754.617194
10450.288491,3701.029710,3552.988522,-78448.178995
10450.291025,148.041188,7846.182985,-76149.892501
10450.293558,-12139.377449,2368.659014,-79061.055394
10450.296092,-2664.741391,-1480.411884,-78754.617194
10450.298626,-4145.153275,-1184.329507,-77528.864398
10450.301159,-1628.453072,-1332.370696,-79367.493593
10450.303693,4885.359217,-2664.741391,-79061.055394
10450.306227,2516.700203,296.082377,-77375.645298
10450.308760,-5625.565159,8142.265362,-77222.426198
10450.311294,-2368.659014,6365.771101,-78754.617194
10450.313828,-148.041188,148.041188,-79061.055394
10450.316361,1184.329507,740.205942,-77375.645298
10450.318895,-2960.823768,-1332.370696,-77682.083497
10450.321429,6513.812290,-1924.535449,-76915.987999
10450.323962,-10955.047942,-4589.276840,-77682.083497
10450.326496,-296.082377,7846.182985,-77222.426198
10450.329052,-2220.617826,2664.741391,-77835.302597
10450.331608,-10214.842000,6661.853478,-75690.235202
10450.334164,-3997.112087,10066.800811,-77222.426198
10450.336720,-2664.741391,-3701.029710,-78141.740796
10450.339277,-6513.812290,444.123565,-77222.426198
10450.341833,-6513.812290,-148.041188,-78754.617194
10450.344389,0.000000,740.205942,-77835.302597
10450.346945,-5477.523971,1036.288319,-76456.330700
10450.349501,-4293.194464,5181.441594,-76456.330700
10450.352057,-148.041188,-148.041188,-78448.178995
10450.354613,4737.318029,5477.523971,-76149.892501
10450.357169,4441.235652,-7402.059420,-78141.740796
10450.359725,3997.112087,-5477.523971,-76149.892501
10450.362281,3849.070898,-8290.306550,-76609.549800
10450.364837,-5181.441594,-7550.100608,-78601.398095
10450.367393,7846.182985,-3997.112087,-77222.426198
10450.369950,2812.782580,-1776.494261,-76762.768900
10450.372506,2072.576638,2516.700203,-78294.959896
10450.375062,5773.606348,740.205942,-78907.836294
10450.377618,5329.482782,-2072.576638,-77069.207099
10450.380174,1480.411884,-3108.864956,-76456.330700
10450.382730,-1924.535449,-8734.430116,-80286.808190
10450.385286,10362.883188,-8438.347739,-78754.617194
10450.387842,-148.041188,-7402.059420,-76456.330700
10450.390398,-3404.947333,4293.194464,-77222.426198
10450.392954,3404.947333,-3701.029710,-78754.617194
10450.395510,-592.164754,-1776.494261,-76456.330700
10450.398066,-6957.935855,-1924.535449,-77835.302597
10450.400622,2960.823768,-3108.864956,-77375.645298
10450.403179,6809.894666,-4885.359217,-78294.959896
10450.405735,-1628.453072,-6809.894666,-78907.836294
10450.408291,9918.759623,-7698.141797,-75843.454302
10450.410847,11695.253884,-8734.430116,-77528.864398
10450.413403,5181.441594,-444.123565,-78448.178995
10450.415959,7698.141797,-6809.894666,-79061.055394
10450.418515,1628.453072,-2220.617826,-75690.235202
10450.421071,-7698.141797,2812.782580,-76149.892501
10450.423627,2220.617826,-2664.741391,-78448.178995
10450.426183,7698.141797,-3404.947333,-77375.645298
10450.428739,1480.411884,-3108.864956,-77375.645298
10450.431313,4145.153275,-1924.535449,-77988.521696
10450.433887,-1332.370696,-5329.482782,-77528.864398
10450.436460,-15988.448347,2664.741391,-76303.111601
10450.439034,-5625.565159,7846.182985,-76762.768900
10450.441607,1776.494261,1184.329507,-77835.302597
10450.444181,-888.247130,6365.771101,-76303.111601
10450.446755,-7254.018232,6217.729913,-77069.207099
10450.449328,-5477.523971,2960.823768,-78448.178995
10450.451902,-5625.565159,-3997.112087,-79061.055394
10450.454475,-7550.100608,1628.453072,-77528.864398
10450.457049,7254.018232,-5181.441594,-78907.836294
10450.459623,-148.041188,-444.123565,-77988.521696
10450.462196,-5181.441594,3701.029710,-78294.959896
10450.464770,-2220.617826,2664.741391,-78601.398095
10450.467343,1480.411884,3552.988522,-77682.083497
10450.469917,4293.194464,2368.659014,-77835.302597
10450.472491,-2664.741391,-2812.782580,-79367.493593
10450.475064,5921.647536,-1480.411884,-77682.083497
10450.477638,-4441.235652,-2812.782580,-77988.521696
10450.480211,-5181.441594,6365.771101,-77988.521696
10450.482785,-2220.617826,740.205942,-79367.493593
10450.485359,-1480.411884,2072.576638,-78141.740796
10450.487932,-10214.842000,6217.729913,-78601.398095
10450.490506,296.082377,-740.205942,-77528.864398
10450.493079,-3108.864956,592.164754,-77988.521696
10450.495653,-7698.141797,1776.494261,-78141.740796
10450.498227,-444.123565,3849.070898,-77375.645298
10450.500800,-148.041188,-1776.494261,-77682.083497
10450.503374,-4885.359217,3404.947333,-76915.987999
10450.505947,-592.164754,1628.453072,-78294.959896
10450.508521,10807.006753,888.247130,-76609.549800
10450.511095,1924.535449,-7550.100608,-77682.083497
10450.513668,148.041188,-5181.441594,-78141.740796
10450.516242,5773.606348,-9030.512492,-77682.083497
10450.518815,-740.205942,-9918.759623,-78294.959896
10450.521389,740.205942,1036.288319,-76915.987999
10450.523963,4885.359217,-4293.194464,-78907.836294
10450.526536,592.164754,0.000000,-76915.987999
10450.529110,3108.864956,2220.617826,-78294.959896
10450.531683,4589.276840,-6217.729913,-77528.864398
10450.534270,1628.453072,-3997.112087,-76915.987999
10450.536857,-5773.606348,-7105.977043,-77528.864398
10450.539444,8882.471304,-6365.771101,-77375.645298
10450.542031,6217.729913,-3108.864956,-78907.836294
10450.544618,-3108.864956,-1480.411884,-77988.521696
10450.547204,3404.947333,296.082377,-77988.521696
10450.549791,6661.853478,-3552.988522,-76762.768900
10450.552378,-5477.523971,2220.617826,-77682.083497
10450.554965,3997.112087,-4737.318029,-78601.398095
10450.557552,2960.823768,-4441.235652,-78294.959896
10450.560139,4145.153275,-7254.018232,-77222.426198
10450.562726,3849.070898,-7550.100608,-76609.549800
10450.565312,12583.501014,-6513.812290,-77375.645298
10450.567899,148.041188,-4441.235652,-77222.426198
10450.570486,1480.411884,1036.288319,-79061.055394
10450.573073,-1776.494261,-2368.659014,-77682.083497
10450.575660,-2960.823768,-3849.070898,-75843.454302
10450.578247,2664.741391,-740.205942,-78294.959896
10450.580834,10807.006753,-3849.070898,-77375.645298
10450.583420,6957.935855,-5181.441594,-75996.673402
10450.586007,-10362.883188,-2516.700203,-76915.987999
10450.588594,-5921.647536,2368.659014,-76456.330700
10450.591181,-4885.359217,3701.029710,-77222.426198
10450.593768,-5181.441594,5921.647536,-79061.055394
10450.596355,4885.359217,4737.318029,-77375.645298
10450.598942,740.205942,3404.947333,-77528.864398
10450.601528,-8586.388927,6217.729913,-77222.426198
10450.604115,-5625.565159,-3404.947333,-79061.055394
10450.606702,-1924.535449,1480.411884,-77988.521696
10450.609289,148.041188,-3849.070898,-77069.207099
10450.611876,-1628.453072,1776.494261,-77375.645298
10450.614463,5921.647536,740.205942,-77222.426198
10450.617050,-7994.224174,1628.453072,-76303.111601
10450.619637,-5477.523971,9326.594869,-77682.083497
10450.622223,296.082377,-1480.411884,-79061.055394
10450.624810,-3404.947333,592.164754,-75843.454302
10450.627397,-2516.700203,1036.288319,-77682.083497
10450.629984,148.041188,-2516.700203,-77375.645298
10450.632571,444.123565,1184.329507,-77682.083497
10450.635158,-8290.306550,4441.235652,-79061.055394
10450.637753,-1036.288319,1628.453072,-79673.931792
10450.640348,-5477.523971,1924.535449,-76762.768900
10450.642943,-4145.153275,5181.441594,-76456.330700
10450.645538,-3552.988522,-1184.329507,-79214.274493
10450.648133,-4589.276840,2812.782580,-77682.083497
10450.650728,-7254.018232,2368.659014,-77682.083497
10450.653323,-1480.411884,148.041188,-78754.617194
10450.655918,-296.082377,2812.782580,-77682.083497
10450.658514,-1924.535449,1332.370696,-77222.426198
10450.661109,12435.459826,-3404.947333,-78294.959896
10450.663704,6661.853478,-10066.800811,-77222.426198
10450.666299,-1332.370696,-1332.370696,-75843.454302
10450.668894,3701.029710,-7550.100608,-78448.178995
10450.671489,5773.606348,-8438.347739,-77682.083497
10450.674084,-1332.370696,-1776.494261,-77375.645298
10450.676679,1332.370696,-296.082377,-78141.740796
10450.679274,7994.224174,-148.041188,-78754.617194
10450.681869,3849.070898,-3701.029710,-76915.987999
10450.684465,-3849.070898,-2516.700203,-77988.521696
10450.687060,6217.729913,-8438.347739,-77988.521696
10450.689655,-2960.823768,-7994.224174,-76149.892501
10450.692250,888.247130,592.164754,-78141.740796
10450.694845,4885.359217,-8290.306550,-80440.027290
10450.697440,5181.441594,1184.329507,-76915.987999
10450.700035,-3701.029710,592.164754,-75843.454302
10450.702630,0.000000,-3701.029710,-78141.740796
10450.705225,7105.977043,-3256.906145,-77988.521696
10450.707820,-3256.906145,-5625.565159,-78601.398095
10450.710415,7698.141797,-5181.441594,-77375.645298
10450.713011,8290.306550,-8586.388927,-77222.426198
10450.715606,4737.318029,-6513.812290,-77835.302597
10450.718201,6957.935855,-5477.523971,-79214.274493
10450.720796,4885.359217,-3256.906145,-77835.302597
10450.723391,-6513.812290,-2072.576638,-76609.549800
10450.725986,1924.535449,2812.782580,-77528.864398
10450.728581,4737.318029,-6513.812290,-78294.959896
10450.731176,-740.205942,-3552.988522,-76456.330700
10450.733771,6069.688724,-1924.535449,-77222.426198
10450.736366,1480.411884,-7698.141797,-78754.617194
10450.738962,-10807.006753,2664.741391,-78294.959896
10450.741563,-13323.706956,6513.812290,-77682.083497
10450.744164,4885.359217,5033.400406,-77835.302597
10450.746765,1036.288319,6661.853478,-76609.549800
10450.749366,-8290.306550,5921.647536,-76609.549800
10450.751968,0.000000,2516.700203,-79673.931792
10450.754569,-4885.359217,-2220.617826,-77682.083497
10450.757170,-7402.059420,1628.453072,-77835.302597
10450.759771,3849.070898,-4589.276840,-77988.521696
10450.762372,2812.782580,-444.123565,-77375.645298
10450.764974,-2664.741391,1628.453072,-77222.426198
10450.767575,-7402.059420,6217.729913,-77069.207099
10450.770176,2072.576638,1924.535449,-77835.302597
10450.772777,-7846.182985,2664.741391,-76149.892501
10450.775379,1332.370696,444.123565,-77069.207099
10450.777980,3701.029710,592.164754,-76303.111601
10450.780581,-5033.400406,-2516.700203,-76149.892501
10450.783182,-5625.565159,4145.153275,-77835.302597
10450.785783,-444.123565,1480.411884,-77222.426198
10450.788385,-5921.647536,1924.535449,-77375.645298
10450.790986,-6513.812290,5921.647536,-77682.083497
10450.793587,-2220.617826,1776.494261,-77528.864398
10450.796188,-3404.947333,2960.823768,-77835.302597
10450.798789,-8734.430116,1184.329507,-80286.808190
10450.801391,3701.029710,-1036.288319,-78448.178995
10450.803992,-5033.400406,-444.123565,-76609.549800
10450.806593,-6661.853478,4737.318029,-79061.055394
10450.809194,9178.553681,-5181.441594,-79980.369991
10450.811795,9918.759623,-9178.553681,-77988.521696
10450.814397,-592.164754,-3108.864956,-77528.864398
10450.816998,1924.535449,-5477.523971,-77988.521696
10450.819599,5181.441594,-6661.853478,-76456.330700
10450.822200,-3552.988522,-5625.565159,-76456.330700
10450.824803,3997.112087,592.164754,-77069.207099
10450.827408,6957.935855,-3404.947333,-77682.083497
10450.830013,3701.029710,-444.123565,-77375.645298
10450.832618,2220.617826,-6365.771101,-78754.617194
10450.835223,3404.947333,-6809.894666,-78141.740796
10450.837828,5625.565159,-7105.977043,-77069.207099
10450.840433,-1776.494261,-3552.988522,-77222.426198
10450.843038,4737.318029,-6809.894666,-78601.398095
10450.845643,2960.823768,148.041188,-77835.302597
10450.848248,-5181.441594,592.164754,-78141.740796
10450.850853,6365.771101,-3552.988522,-77682.083497
10450.853457,1480.411884,-7550.100608,-76762.768900
10450.856062,-2072.576638,2960.823768,-77375.645298
10450.858667,6217.729913,-6069.688724,-77375.645298
10450.861272,12435.459826,-10955.047942,-77682.083497
10450.863877,4885.359217,-2516.700203,-77222.426198
10450.866482,5477.523971,-4589.276840,-78754.617194
10450.869087,2368.659014,-3404.947333,-77682.083497
10450.871692,-2812.782580,3108.864956,-76609.549800
10450.874297,1776.494261,-3108.864956,-78601.398095
10450.876902,7846.182985,-1776.494261,-77069.207099
10450.879507,-2220.617826,-2072.576638,-78141.740796
10450.882111,888.247130,-4145.153275,-78294.959896
10450.884716,0.000000,-3404.947333,-77375.645298
10450.887321,-13323.706956,-592.164754,-76762.768900
10450.889926,-10214.842000,8586.388927,-78294.959896
10450.892531,2516.700203,3849.070898,-79520.712692
10450.895136,-296.082377,5181.441594,-76762.768900
10450.897741,-5329.482782,7846.182985,-77375.645298
10450.900346,-6661.853478,444.123565,-78907.836294
10450.902951,-2812.782580,-1480.411884,-77375.645298
10450.905556,-5921.647536,-1332.370696,-76456.330700
10450.908161,-888.247130,-2368.659014,-79827.150892
10450.910766,7402.059420,2072.576638,-77069.207099
10450.913370,-9178.553681,-1332.370696,-76303.111601
10450.915975,-3849.070898,6513.812290,-76762.768900
10450.918580,1776.494261,2516.700203,-77528.864398
10450.921185,-6661.853478,-1036.288319,-76456.330700
10450.923790,5921.647536,3552.988522,-79061.055394
10450.926395,296.082377,-5329.482782,-78294.959896
10450.929002,-296.082377,-4145.153275,-76762.768900
10450.931608,-9770.718434,5033.400406,-77069.207099
10450.934215,-1628.453072,2072.576638,-77375.645298
10450.936821,-2516.700203,3552.988522,-77835.302597
10450.939428,-8734.430116,2812.782580,-77682.083497
10450.942035,1628.453072,5033.400406,-77222.426198
10450.944641,-1332.370696,1628.453072,-77375.645298
10450.947248,-7698.141797,2664.741391,-77835.302597
10450.949855,-2516.700203,4885.359217,-77222.426198
10450.952461,740.205942,-3108.864956,-77528.864398
10450.955068,5921.647536,-3701.029710,-76456.330700
10450.957674,6069.688724,-9030.512492,-78754.617194
10450.960281,5625.565159,-2368.659014,-76456.330700
10450.962888,-592.164754,-6365.771101,-77528.864398
10450.965494,740.205942,-3701.029710,-78601.398095
10450.968101,3701.029710,-3997.112087,-77835.302597
10450.970707,-2220.617826,-2072.576638,-75537.016103
10450.973314,740.205942,1628.453072,-77528.864398
10450.975921,8586.388927,-4885.359217,-77988.521696
10450.978527,3552.988522,-5625.565159,-76609.549800
10450.981134,-3404.947333,-4293.194464,-79061.055394
10450.983741,4737.318029,-5921.647536,-78601.398095
10450.986347,4737.318029,-5773.606348,-76915.987999
10450.988954,-2516.700203,-2960.823768,-78601.398095
10450.991560,3108.864956,-444.123565,-78448.178995
10450.994167,3552.988522,-148.041188,-77222.426198
10450.996774,-2812.782580,-1924.535449,-76149.892501
10450.999380,592.164754,-1628.453072,-77222.426198
10451.001987,4293.194464,-7698.141797,-79214.274493
10451.004593,2368.659014,-7994.224174,-77069.207099
10451.007200,11251.130318,-7254.018232,-77222.426198
10451.009807,10214.842000,-7402.059420,-78141.740796
10451.012413,-1776.494261,-1628.453072,-77069.207099
10451.015020,-2812.782580,296.082377,-78754.617194
10451.017627,4737.318029,-2960.823768,-78601.398095
10451.020233,4293.194464,-4737.318029,-77528.864398
10451.022840,-740.205942,296.082377,-78448.178995
10451.025446,10214.842000,-7846.182985,-78448.178995
10451.028053,-1628.453072,-5477.523971,-76609.549800
10451.030660,-10658.965565,4441.235652,-77835.302597
10451.033267,-9030.512492,1924.535449,-78754.617194
10451.035874,-2516.700203,2664.741391,-79214.274493
10451.038482,-1628.453072,8586.388927,-78448.178995
10451.041089,5773.606348,6661.853478,-78448.178995
10451.043696,-1480.411884,1480.411884,-77835.302597
10451.046304,-9770.718434,-296.082377,-77222.426198
10451.048911,-2812.782580,-3997.112087,-78754.617194
10451.051519,3404.947333,148.041188,-75690.235202
10451.054126,-2960.823768,-148.041188,-77222.426198
10451.056733,1184.329507,2812.782580,-77682.083497
10451.059341,-1184.329507,4589.276840,-79520.712692
10451.061948,-7698.141797,3404.947333,-76609.549800
10451.064555,888.247130,4589.276840,-77222.426198
10451.067163,3108.864956,-3997.112087,-78448.178995
10451.069770,-1480.411884,2220.617826,-75537.016103
10451.072377,-7105.977043,888.247130,-79214.274493
10451.074985,-2072.576638,1184.329507,-77528.864398
10451.077592,-8882.471304,1776.494261,-77528.864398
10451.080199,-8586.388927,5477.523971,-78754.617194
10451.082807,-444.123565,3997.112087,-77528.864398
10451.085414,-10807.006753,3404.947333,-78294.959896
10451.088021,-3256.906145,5921.647536,-76456.330700
10451.090629,2072.576638,-2368.659014,-78907.836294
10451.093236,-3997.112087,1332.370696,-76762.768900
10451.095844,-5181.441594,1776.494261,-77988.521696
10451.098451,9770.718434,-6069.688724,-78907.836294
10451.101058,11103.089130,-8734.430116,-78294.959896
10451.103666,-2220.617826,-3108.864956,-77835.302597
10451.106273,5181.441594,-4441.235652,-77835.302597
10451.108880,3997.112087,-7105.977043,-78448.178995
10451.111488,-4441.235652,-5921.647536,-75383.797003
10451.114095,1628.453072,2664.741391,-77528.864398
10451.116702,7105.977043,-4441.235652,-78907.836294
10451.119310,740.205942,-2664.741391,-77375.645298
10451.121917,5477.523971,-2812.782580,-77222.426198
10451.124524,3701.029710,-9918.759623,-77222.426198
10451.127132,-1184.329507,-5329.482782,-76303.111601
10451.129739,0.000000,-4737.318029,-77682.083497
10451.132347,4885.359217,-1184.329507,-77069.207099
10451.134954,3997.112087,-740.205942,-78448.178995
10451.137560,-2812.782580,888.247130,-77222.426198
10451.140166,6661.853478,-4441.235652,-78448.178995
10451.142771,4589.276840,-4441.235652,-77375.645298
10451.145377,-592.164754,-5625.565159,-79214.274493
10451.147983,10510.924376,-8882.471304,-78754.617194
10451.150589,13471.748144,-9770.718434,-77528.864398
10451.153195,-1628.453072,-2220.617826,-78141.740796
10451.155800,3701.029710,-2812.782580,-78601.398095
10451.158406,4737.318029,-592.164754,-77528.864398
10451.161012,-2220.617826,-3404.947333,-77835.302597
10451.163618,5329.482782,2368.659014,-78294.959896
10451.166224,7698.141797,-2072.576638,-79061.055394
10451.168830,888.247130,-6365.771101,-77835.302597
10451.171435,-9918.759623,-592.164754,-77988.521696
10451.174041,-4293.194464,2368.659014,-78141.740796
10451.176647,-11251.130318,5033.400406,-76609.549800
10451.179253,-5477.523971,4885.359217,-78907.836294
10451.181859,7105.977043,8882.471304,-77375.645298
10451.184464,-3701.029710,2220.617826,-78448.178995
10451.187070,-11103.089130,5773.606348,-78448.178995
10451.189676,-2072.576638,-4441.235652,-79827.150892
10451.192282,-3552.988522,-2812.782580,-76915.987999
10451.194888,-2220.617826,592.164754,-78754.617194
10451.197493,888.247130,-2960.823768,-79367.493593
10451.200099,148.041188,1628.453072,-76456.330700
10451.202705,-10214.842000,3997.112087,-76303.111601
10451.205311,-3404.947333,2664.741391,-76303.111601
10451.207917,7846.182985,2960.823768,-77835.302597
10451.210523,-3997.112087,-2960.823768,-78294.959896
10451.213128,-444.123565,4145.153275,-77528.864398
10451.215734,-888.247130,-1184.329507,-77069.207099
10451.218340,-8882.471304,3849.070898,-76149.892501
10451.220946,-5477.523971,-444.123565,-77528.864398
10451.223552,-1628.453072,7698.141797,-76762.768900
10451.226157,-3256.906145,3849.070898,-77222.426198
10451.228763,-6513.812290,7402.059420,-78294.959896
10451.231369,3849.070898,-148.041188,-78294.959896
10451.233975,-9918.759623,-1036.288319,-76609.549800
10451.236581,-5329.482782,3997.112087,-77988.521696
10451.239187,9030.512492,-8734.430116,-78294.959896
10451.241791,3552.988522,-9918.759623,-77682.083497
10451.244395,8438.347739,0.000000,-77682.083497
10451.246999,5921.647536,-9918.759623,-78601.398095
10451.249604,148.041188,-4589.276840,-76303.111601
10451.252208,-6069.688724,444.123565,-75843.454302
10451.254812,2664.741391,-3997.112087,-79214.274493
10451.257416,9474.636058,1628.453072,-77682.083497
10451.260021,0.000000,-4441.235652,-78294.959896
10451.262625,6957.935855,-3701.029710,-78294.959896
10451.265229,5625.565159,-8142.265362,-77988.521696
10451.267833,-6217.729913,-4441.235652,-77835.302597
10451.270438,5033.400406,-3849.070898,-79214.274493
10451.273042,6365.771101,-5477.523971,-78294.959896
10451.275646,-3256.906145,-296.082377,-76762.768900
10451.278250,1332.370696,-1776.494261,-78601.398095
10451.280855,1924.535449,-3404.947333,-77528.864398
10451.283459,1184.329507,-5773.606348,-75537.016103
10451.286063,592.164754,-6069.688724,-79061.055394
10451.288667,15396.283594,-11251.130318,-79214.274493
10451.291272,3849.070898,-9178.553681,-76762.768900
10451.293876,5773.606348,-1332.370696,-77222.426198
10451.296480,1924.535449,-2220.617826,-79061.055394
10451.299084,3404.947333,-4737.318029,-77988.521696
10451.301689,2812.782580,3997.112087,-77222.426198
10451.304293,5773.606348,-3552.988522,-78448.178995
10451.306897,5033.400406,-1776.494261,-76456.330700
10451.309501,-2368.659014,-5329.482782,-78294.959896
10451.312106,-4293.194464,740.205942,-77835.302597
10451.314710,-7846.182985,3701.029710,-76303.111601
10451.317314,-7402.059420,2220.617826,-76609.549800
10451.319918,-3701.029710,11695.253884,-77222.426198
10451.322523,2664.741391,4885.359217,-79061.055394
10451.325127,-4293.194464,1184.329507,-76456.330700
10451.327731,-8438.347739,3108.864956,-78448.178995
10451.330335,-3108.864956,-5921.647536,-79980.369991
10451.332940,-1184.329507,888.247130,-76303.111601
10451.335544,444.123565,-2072.576638,-79520.712692
10451.338148,296.082377,5033.400406,-79520.712692
10451.340752,-1628.453072,1332.370696,-78141.740796
10451.343357,-5625.565159,2072.576638,-76456.330700
10451.345960,-4441.235652,4885.359217,-78907.836294
10451.348562,1480.411884,592.164754,-77682.083497
10451.351165,-4441.235652,296.082377,-77682.083497
10451.353768,-3849.070898,1332.370696,-77069.207099
10451.356371,-1480.411884,3256.906145,-77988.521696
10451.358974,-10362.883188,3404.947333,-77528.864398
10451.361577,-6661.853478,4589.276840,-78448.178995
10451.364179,-740.205942,4885.359217,-78294.959896
10451.366782,-2812.782580,1480.411884,-77682.083497
10451.369385,-2220.617826,2664.741391,-77222.426198
10451.371988,-2516.700203,-2072.576638,-77988.521696
10451.374591,-5329.482782,148.041188,-76762.768900
10451.377194,4885.359217,-5477.523971,-78907.836294
10451.379796,10658.965565,-11399.171507,-78294.959896
10451.382399,5181.441594,-3108.864956,-76609.549800
10451.385002,1628.453072,-5625.565159,-79367.493593
10451.387605,4737.318029,-4589.276840,-77528.864398
10451.390208,-1184.329507,-1184.329507,-76609.549800
10451.392811,-1776.494261,-1184.329507,-75843.454302
10451.395413,8438.347739,-1924.535449,-78448.178995
10451.398016,7994.224174,-3108.864956,-76609.549800
10451.400619,0.000000,-4441.235652,-77682.083497
10451.403222,1628.453072,-7550.100608,-77375.645298
10451.405825,1480.411884,-6069.688724,-77222.426198
10451.408428,-2960.823768,-1480.411884,-78754.617194
10451.411031,-3552.988522,740.205942,-77835.302597
10451.413633,7105.977043,-4885.359217,-76303.111601
10451.416236,296.082377,-4441.235652,-77528.864398
10451.418839,-4145.153275,0.000000,-78294.959896
10451.421442,1480.411884,-7698.141797,-79673.931792
10451.424045,3701.029710,-10658.965565,-77528.864398
10451.426648,12287.418637,-3404.947333,-78294.959896
10451.429250,8142.265362,-10066.800811,-78754.617194
10451.431853,-3256.906145,-1776.494261,-76609.549800
10451.434456,-5773.606348,-1628.453072,-77835.302597
10451.437059,4293.194464,444.123565,-78448.178995
10451.439662,5033.400406,-1184.329507,-78448.178995
10451.442265,1628.453072,296.082377,-77835.302597
10451.444867,8586.388927,-7402.059420,-79214.274493
10451.447470,-6069.688724,2220.617826,-77528.864398
10451.450070,-16580.613101,4293.194464,-76609.549800
10451.452671,-3849.070898,2664.741391,-77835.302597
10451.455271,1776.494261,3997.112087,-77682.083497
10451.457871,-5477.523971,6957.935855,-76609.549800
10451.460471,148.041188,5921.647536,-78754.617194
10451.463071,-5181.441594,-740.205942,-76609.549800
10451.465671,-8734.430116,-1628.453072,-77222.426198
10451.468272,-3997.112087,-888.247130,-79367.493593
10451.470872,1776.494261,148.041188,-76149.892501
10451.473472,-3256.906145,-592.164754,-77528.864398
10451.476072,-3997.112087,5773.606348,-78294.959896
10451.478672,-148.041188,5773.606348,-76149.892501
10451.481272,-148.041188,-2368.659014,-77682.083497
10451.483873,-5477.523971,5477.523971,-77988.521696
10451.486473,6809.894666,-1332.370696,-79520.712692
10451.489073,-2812.782580,1480.411884,-77835.302597
10451.491673,-9918.759623,3256.906145,-77988.521696
10451.494273,-7254.018232,0.000000,-77375.645298
10451.496873,-4885.359217,6957.935855,-76456.330700
10451.499474,-9178.553681,4589.276840,-79673.931792
10451.502074,-2812.782580,7402.059420,-78141.740796
10451.504674,3404.947333,-296.082377,-77988.521696
10451.507274,-11251.130318,-296.082377,-76456.330700
10451.509874,-1924.535449,1036.288319,-77375.645298
10451.512474,8290.306550,-9030.512492,-77835.302597
10451.515075,3849.070898,-4589.276840,-76762.768900
10451.517675,8142.265362,-6513.812290,-79827.150892
10451.520275,6957.935855,-5921.647536,-77682.083497
10451.522875,-1332.370696,-5181.441594,-77069.207099
10451.525475,-8882.471304,148.041188,-77682.083497
10451.528076,4589.276840,-3849.070898,-78294.959896
10451.530676,4293.194464,-1480.411884,-77835.302597
10451.533276,4589.276840,-1628.453072,-78601.398095
10451.535876,9178.553681,-8290.306550,-77988.521696
10451.538476,-296.082377,-7994.224174,-76762.768900
10451.541076,-3701.029710,-6957.935855,-77528.864398
10451.543677,3256.906145,-2072.576638,-76456.330700
10451.546277,4145.153275,-2960.823768,-76303.111601
10451.548877,-1036.288319,0.000000,-75230.577904
10451.551477,740.205942,-1184.329507,-75843.454302
10451.554075,3997.112087,-5921.647536,-77528.864398
10451.556673,-1628.453072,-5921.647536,-78448.178995
10451.559271,9178.553681,-7254.018232,-77069.207099
10451.561869,12879.583391,-8142.265362,-77069.207099
10451.564467,4737.318029,-2368.659014,-77069.207099
10451.567064,888.247130,-5921.647536,-77835.302597
10451.569662,5329.482782,-2368.659014,-76762.768900
10451.572260,-888.247130,-592.164754,-78141.740796
10451.574858,-296.082377,4293.194464,-78448.178995
10451.577456,12583.501014,-6365.771101,-78601.398095
10451.580054,-5477.523971,-3552.988522,-76762.768900
10451.582652,-8734.430116,4737.318029,-76762.768900
10451.585250,-10955.047942,2368.659014,-78601.398095
10451.587848,-5773.606348,5181.441594,-77222.426198
10451.590445,-4293.194464,5921.647536,-79827.150892
10451.593043,1924.535449,5625.565159,-77528.864398
10451.595641,2072.576638,5921.647536,-76149.892501
10451.598239,-10955.047942,-1036.288319,-77835.302597
10451.600837,-1628.453072,-1628.453072,-78294.959896
10451.603435,296.082377,148.041188,-78754.617194
10451.606033,-2664.741391,2664.741391,-78754.617194
10451.608631,2072.576638,1184.329507,-79061.055394
10451.611229,-1776.494261,-592.164754,-78141.740796
10451.613826,-1924.535449,4589.276840,-77835.302597
10451.616424,-1480.411884,1924.535449,-78448.178995
10451.619022,888.247130,1924.535449,-77528.864398
10451.621620,-3108.864956,592.164754,-77835.302597
10451.624218,-6661.853478,2368.659014,-78294.959896
10451.626816,-4293.194464,-296.082377,-75690.235202
10451.629414,-15988.448347,2072.576638,-76762.768900
10451.632012,-2812.782580,10214.842000,-77835.302597
10451.634610,-2220.617826,2220.617826,-80133.589091
10451.637208,-888.247130,2812.782580,-76303.111601
10451.639805,-9030.512492,4145.153275,-76762.768900
10451.642403,0.000000,-2960.823768,-77835.302597
10451.645001,9326.594869,-6809.894666,-77528.864398
10451.647599,1036.288319,-10362.883188,-79673.931792
10451.650197,11843.295072,-2664.741391,-78141.740796
10451.652795,7994.224174,-6217.729913,-78601.398095
10451.655393,-3701.029710,-3849.070898,-77528.864398
10451.657989,-1036.288319,-4885.359217,-78294.959896
10451.660584,-444.123565,740.205942,-76762.768900
10451.663180,2072.576638,592.164754,-77528.864398
10451.665776,4589.276840,-4441.235652,-78754.617194
10451.668371,10362.883188,-3404.947333,-76303.111601
10451.670967,-2960.823768,-9474.636058,-76915.987999
10451.673563,-1480.411884,-4441.235652,-76915.987999
10451.676159,1628.453072,-4145.153275,-78754.617194
10451.678754,-1628.453072,-2516.700203,-76609.549800
10451.681350,444.123565,444.123565,-78601.398095
10451.683946,4441.235652,-2664.741391,-76915.987999
10451.686542,2664.741391,-4293.194464,-77222.426198
10451.689137,-1036.288319,-6809.894666,-79980.369991
10451.691733,14952.160028,-6809.894666,-80133.589091
10451.694329,10955.047942,-12139.377449,-78448.178995
10451.696924,-296.082377,1184.329507,-77988.521696
10451.699520,3701.029710,-8882.471304,-78141.740796
10451.702116,-1184.329507,-3997.112087,-75690.235202
10451.704712,-2368.659014,-444.123565,-78448.178995
10451.707307,7698.141797,2220.617826,-77682.083497
10451.709903,11103.089130,-3701.029710,-78294.959896
10451.712499,-11251.130318,-296.082377,-77528.864398
10451.715095,-6957.935855,3552.988522,-76762.768900
10451.717690,-6957.935855,2368.659014,-76149.892501
10451.720286,-3849.070898,6365.771101,-76149.892501
10451.722882,740.205942,3701.029710,-78754.617194
10451.725478,4737.318029,4441.235652,-76762.768900
10451.728073,-6069.688724,3552.988522,-76456.330700
10451.730669,-4885.359217,1184.329507,-76149.892501
10451.733265,296.082377,-5181.441594,-79367.493593
10451.735860,-4145.153275,-1184.329507,-78601.398095
10451.738456,-1628.453072,1628.453072,-77682.083497
10451.741052,-2220.617826,1924.535449,-77988.521696
10451.743648,-740.205942,1776.494261,-76303.111601
10451.746243,-4441.235652,3108.864956,-76303.111601
10451.748839,-1924.535449,2368.659014,-77222.426198
10451.751435,4441.235652,3849.070898,-77988.521696
10451.754031,-10510.924376,296.082377,-79367.493593
10451.756626,-11103.089130,6661.853478,-77528.864398
10451.759222,-9918.759623,740.205942,-78601.398095
10451.761815,-7698.141797,4737.318029,-75843.454302
10451.764408,-5477.523971,8290.306550,-79367.493593
10451.767001,6069.688724,0.000000,-78754.617194
10451.769594,-6661.853478,888.247130,-76762.768900
10451.772187,-5921.647536,2220.617826,-78141.740796
10451.774780,6069.688724,-9178.553681,-78141.740796
10451.777372,2812.782580,-10362.883188,-79214.274493
10451.779965,3108.864956,-2072.576638,-78448.178995
10451.782558,10214.842000,-6809.894666,-79980.369991
10451.785151,3256.906145,-6661.853478,-77222.426198
10451.787744,-8142.265362,-740.205942,-77222.426198
10451.790337,1924.535449,-4145.153275,-78448.178995
10451.792930,8142.265362,740.205942,-76456.330700
10451.795523,2664.741391,-3849.070898,-78754.617194
10451.798116,11103.089130,-1036.288319,-77835.302597
10451.800709,3701.029710,-7254.018232,-77835.302597
10451.803302,-2960.823768,-10955.047942,-77835.302597
10451.805894,-2220.617826,2812.782580,-77222.426198
10451.808487,5477.523971,-6661.853478,-79061.055394
10451.811080,2368.659014,-1480.411884,-76149.892501
10451.813673,-3849.070898,-4145.153275,-77528.864398
10451.816266,5033.400406,-2220.617826,-75537.016103
10451.818859,1628.453072,-9030.512492,-77375.645298
10451.821452,6809.894666,-4293.194464,-77988.521696
10451.824045,11695.253884,-5921.647536,-78294.959896
10451.826638,7402.059420,-7105.977043,-76762.768900
10451.829231,-6513.812290,-592.164754,-76303.111601
10451.831824,5181.441594,-6069.688724,-77835.302597
10451.834416,296.082377,-3404.947333,-77528.864398
10451.837009,3849.070898,5033.400406,-77069.207099
10451.839602,4293.194464,-4293.194464,-78907.836294
10451.842195,-6661.853478,3997.112087,-75230.577904
10451.844788,-14656.077652,5921.647536,-75077.358804
10451.847381,-7846.182985,3849.070898,-78141.740796
10451.849974,2072.576638,3997.112087,-76149.892501
10451.852567,-5033.400406,5921.647536,-76915.987999
10451.855160,1184.329507,4885.359217,-78907.836294
10451.857753,-3404.947333,-592.164754,-77375.645298
10451.860346,-9622.677246,-888.247130,-75077.358804
10451.862938,-6217.729913,-148.041188,-78907.836294
10451.865528,1184.329507,148.041188,-78601.398095
10451.868119,-444.123565,1628.453072,-77222.426198
10451.870709,-4441.235652,1628.453072,-78907.836294
10451.873299,-2516.700203,2516.700203,-77069.207099
10451.875889,1184.329507,-2664.741391,-78754.617194
10451.878480,-7994.224174,6661.853478,-78448.178995
10451.881070,6365.771101,444.123565,-79061.055394
10451.883660,-2960.823768,2220.617826,-79827.150892
10451.886251,-13323.706956,6809.894666,-77682.083497
10451.888841,-9326.594869,296.082377,-77528.864398
10451.891431,-148.041188,6513.812290,-76609.549800
10451.894022,-2516.700203,2664.741391,-78907.836294
10451.896612,-1036.288319,2812.782580,-77988.521696
10451.899202,-3108.864956,-444.123565,-78448.178995
10451.901792,-3256.906145,-740.205942,-74617.701505
10451.904383,6661.853478,-7254.018232,-78294.959896
10451.906973,9474.636058,-8142.265362,-77988.521696
10451.909563,3404.947333,-4293.194464,-76456.330700
10451.912154,10214.842000,-7846.182985,-78141.740796
10451.914744,3701.029710,-8586.388927,-78141.740796
10451.917334,-6957.935855,-1332.370696,-77375.645298
10451.919925,-592.164754,2220.617826,-77222.426198
10451.922515,8586.388927,-3997.112087,-78907.836294
10451.925105,5181.441594,-1776.494261,-76456.330700
10451.927695,-1184.329507,-4293.194464,-79520.712692
10451.930286,7105.977043,-4737.318029,-78294.959896
10451.932876,-5033.400406,-7550.100608,-76915.987999
10451.935466,-4885.359217,592.164754,-78448.178995
10451.938057,3552.988522,-1036.288319,-78754.617194
10451.940647,4441.235652,-5921.647536,-78754.617194
10451.943237,-1184.329507,444.123565,-78141.740796
10451.945828,5921.647536,-8734.430116,-78754.617194
10451.948418,10658.965565,-5477.523971,-78907.836294
10451.951008,740.205942,-5477.523971,-79061.055394
10451.953598,8882.471304,-3997.112087,-79367.493593
10451.956189,5181.441594,-8882.471304,-78294.959896
10451.958779,-4885.359217,-1628.453072,-76456.330700
10451.961369,1628.453072,2664.741391,-78294.959896
10451.963960,6217.729913,-2072.576638,-79827.150892
10451.966550,-740.205942,-444.123565,-76762.768900
10451.969137,-8586.388927,3256.906145,-78294.959896
10451.971724,-6069.688724,5181.441594,-77375.645298
10451.974311,-11251.130318,1924.535449,-77375.645298
10451.976898,-1480.411884,3701.029710,-78294.959896
10451.979485,2220.617826,3552.988522,-77069.207099
10451.982072,444.123565,1184.329507,-78448.178995
10451.984658,-9178.553681,3997.112087,-77222.426198
10451.987245,-2516.700203,-2072.576638,-78294.959896
10451.989832,592.164754,0.000000,-76915.987999
10451.992419,-4145.153275,740.205942,-78448.178995
10451.995006,6661.853478,2664.741391,-78141.740796
10451.997593,1924.535449,1184.329507,-78294.959896
10452.000180,-11103.089130,4293.194464,-76762.768900
10452.002767,3701.029710,-1184.329507,-77988.521696
10452.005354,1036.288319,1480.411884,-77069.207099
10452.007941,-3108.864956,2664.741391,-76149.892501
10452.010528,-7550.100608,3552.988522,-76149.892501
10452.013115,-7105.977043,4293.194464,-77528.864398
10452.015702,-13619.789333,5181.441594,-77528.864398
10452.018289,-6365.771101,7550.100608,-78448.178995
10452.020876,5477.523971,2812.782580,-78754.617194
10452.023462,-6513.812290,-888.247130,-76762.768900
10452.026049,-2664.741391,4589.276840,-78754.617194
10452.028636,7550.100608,-10658.965565,-79520.712692
10452.031223,4145.153275,-9030.512492,-77222.426198
10452.033810,4293.194464,-1776.494261,-80133.589091
10452.036397,11547.212695,-9474.636058,-79673.931792
10452.038984,6365.771101,-3997.112087,-76456.330700
10452.041571,-5773.606348,-5625.565159,-79061.055394
10452.044158,-148.041188,-2072.576638,-78601.398095
10452.046745,1924.535449,-1628.453072,-78601.398095
10452.049332,148.041188,-1480.411884,-79061.055394
10452.051919,5181.441594,-1036.288319,-77835.302597
10452.054506,4293.194464,-8142.265362,-77375.645298
10452.057093,-2812.782580,-7105.977043,-77528.864398
10452.059680,1184.329507,-444.123565,-77682.083497
10452.062266,2220.617826,-3701.029710,-79367.493593
10452.064853,2368.659014,-1184.329507,-77069.207099
10452.067440,-444.123565,-7105.977043,-78448.178995
10452.070027,8438.347739,-4293.194464,-76149.892501
10452.072611,5625.565159,-6217.729913,-77375.645298
10452.075195,3404.947333,-7550.100608,-79520.712692
10452.077779,10362.883188,-4293.194464,-79061.055394
10452.080363,3849.070898,-11547.212695,-78141.740796
10452.082947,-2368.659014,1184.329507,-74924.139704
10452.085531,3701.029710,-6661.853478,-77222.426198
10452.088115,-1184.329507,2368.659014,-76762.768900
10452.090699,4589.276840,-148.041188,-79367.493593
10452.093283,-2072.576638,1184.329507,-77835.302597
10452.095867,-6069.688724,3256.906145,-76456.330700
10452.098451,-13471.748144,7402.059420,-75690.235202
10452.101036,1184.329507,2664.741391,-77682.083497
10452.103620,-1776.494261,4441.235652,-77069.207099
10452.106204,148.041188,5329.482782,-76762.768900
10452.108788,-3256.906145,-592.164754,-79520.712692
10452.111372,-3552.988522,1628.453072,-75230.577904
10452.113956,-11695.253884,-148.041188,-77222.426198
10452.116540,-148.041188,-148.041188,-77988.521696
10452.119124,4589.276840,-740.205942,-79061.055394
10452.121708,444.123565,3108.864956,-77222.426198
10452.124292,-9030.512492,4441.235652,-78601.398095
10452.126876,2960.823768,-4145.153275,-79520.712692
10452.129460,-5033.400406,3108.864956,-77835.302597
10452.132044,-2368.659014,8142.265362,-78907.836294
10452.134628,-3552.988522,1480.411884,-78294.959896
10452.137212,-14804.118840,1924.535449,-77528.864398
10452.139796,-11843.295072,8586.388927,-77528.864398
10452.142380,-3849.070898,3849.070898,-79673.931792
10452.144964,3108.864956,1480.411884,-78448.178995
10452.147548,-6069.688724,4293.194464,-77069.207099
10452.150132,1628.453072,-2368.659014,-79673.931792
10452.152716,7550.100608,-5921.647536,-76456.330700
10452.155298,3256.906145,-7698.141797,-78141.740796
10452.157880,10362.883188,-6809.894666,-78141.740796
10452.160461,9622.677246,-7402.059420,-79673.931792
10452.163043,2220.617826,-6365.771101,-77222.426198
10452.165625,-592.164754,-3997.112087,-76609.549800
10452.168207,2516.700203,-3256.906145,-78907.836294
10452.170789,6217.729913,-2072.576638,-77375.645298
10452.173371,1036.288319,-1036.288319,-78294.959896
10452.175953,10955.047942,-5625.565159,-77988.521696
10452.178535,5625.565159,-6217.729913,-78448.178995
10452.181117,-4293.194464,-3701.029710,-78294.959896
10452.183698,2664.741391,-6809.894666,-78754.617194
10452.186280,3997.112087,-1036.288319,-77222.426198
10452.188862,-1480.411884,-6069.688724,-76456.330700
10452.191444,-444.123565,-2664.741391,-77222.426198
10452.194026,11547.212695,-6217.729913,-75996.673402
10452.196608,1184.329507,-8586.388927,-77835.302597
10452.199190,6069.688724,-3997.112087,-78601.398095
10452.201772,6069.688724,-7254.018232,-78448.178995
10452.204353,1924.535449,-3997.112087,-76609.549800
10452.206935,1480.411884,-4441.235652,-77528.864398
10452.209517,5033.400406,444.123565,-76456.330700
10452.212099,9474.636058,-296.082377,-77222.426198
10452.214681,-5773.606348,1776.494261,-78601.398095
10452.217263,-4293.194464,5329.482782,-77682.083497
10452.219845,-11547.212695,5033.400406,-77069.207099
10452.222427,-8142.265362,7105.977043,-77682.083497
10452.225008,888.247130,1924.535449,-77528.864398
10452.227590,0.000000,2368.659014,-76609.549800
10452.230172,-5033.400406,3997.112087,-79520.712692
10452.232754,-1776.494261,-888.247130,-79061.055394
10452.235336,-5033.400406,-1776.494261,-77528.864398
10452.237918,-6217.729913,888.247130,-77222.426198
10452.240500,2960.823768,1776.494261,-78141.740796
10452.243082,3849.070898,3552.988522,-76609.549800
10452.245663,-2220.617826,-1332.370696,-77682.083497
10452.248245,-1628.453072,3404.947333,-77528.864398
10452.250827,-1776.494261,148.041188,-77375.645298
10452.253409,-1924.535449,4293.194464,-76762.768900
10452.255991,-2812.782580,3108.864956,-79520.712692
10452.258571,-2960.823768,3849.070898,-76149.892501
10452.261151,-13471.748144,3997.112087,-77835.302597
10452.263731,-8290.306550,6513.812290,-78448.178995
10452.266311,1628.453072,1036.288319,-79061.055394
10452.268890,-2072.576638,-1628.453072,-77222.426198
10452.271470,-5329.482782,3701.029710,-78294.959896
10452.274050,9770.718434,-10066.800811,-78448.178995
10452.276630,1776.494261,-6957.935855,-76609.549800
10452.279210,3997.112087,-6809.894666,-77528.864398
10452.281790,9030.512492,-4885.359217,-78907.836294
10452.284370,8290.306550,-6513.812290,-76456.330700
10452.286950,-4589.276840,-5477.523971,-74770.920605
10452.289530,444.123565,-1332.370696,-76149.892501
10452.292110,6069.688724,-2960.823768,-78141.740796
10452.294690,2812.782580,0.000000,-77835.302597
10452.297270,10510.924376,-5625.565159,-77375.645298
10452.299849,5181.441594,-4737.318029,-75537.016103
10452.302429,-740.205942,-3701.029710,-76149.892501
10452.305009,-3552.988522,-1332.370696,-76762.768900
10452.307589,3849.070898,-3701.029710,-78294.959896
10452.310169,3404.947333,-4737.318029,-76762.768900
10452.312749,-2664.741391,-3108.864956,-78754.617194
10452.315329,11103.089130,-7254.018232,-75996.673402
10452.317909,4293.194464,-8142.265362,-77069.207099
10452.320489,5329.482782,-4885.359217,-78141.740796
10452.323069,6513.812290,-6957.935855,-78294.959896
10452.325649,9622.677246,-6957.935855,-77835.302597
10452.328229,-4885.359217,-444.123565,-76609.549800
10452.330808,5921.647536,-592.164754,-78907.836294
10452.333388,4589.276840,-1776.494261,-78448.178995
10452.335968,-2812.782580,4589.276840,-77988.521696
10452.338548,-8586.388927,5181.441594,-79061.055394
10452.341128,-10066.800811,6809.894666,-76915.987999
10452.343708,-10362.883188,6513.812290,-78141.740796
10452.346288,1332.370696,2220.617826,-78141.740796
10452.348868,4441.235652,2368.659014,-77682.083497
10452.351448,-4885.359217,-296.082377,-77528.864398
10452.354028,-6365.771101,-296.082377,-78294.959896
10452.356608,-3552.988522,592.164754,-77375.645298
10452.359188,-4145.153275,-2664.741391,-77528.864398
10452.361764,-1036.288319,6365.771101,-77682.083497
10452.364341,4737.318029,-444.123565,-78601.398095
10452.366918,-4589.276840,444.123565,-76762.768900
10452.369495,-2368.659014,1776.494261,-77375.645298
10452.372072,-2220.617826,1332.370696,-77682.083497
10452.374649,1184.329507,2960.823768,-77988.521696
10452.377226,-10658.965565,5033.400406,-77375.645298
10452.379803,-3701.029710,5625.565159,-76762.768900
10452.382380,-8586.388927,4441.235652,-77528.864398
10452.384957,-8734.430116,5921.647536,-77069.207099
10452.387534,4441.235652,-888.247130,-78601.398095
10452.390111,-1628.453072,2516.700203,-76609.549800
10452.392688,-4145.153275,1184.329507,-78754.617194
10452.395265,5921.647536,-7402.059420,-78294.959896
10452.397842,8586.388927,-7994.224174,-77069.207099
10452.400419,2960.823768,-7402.059420,-77222.426198
10452.402996,5181.441594,-6217.729913,-77375.645298
10452.405573,6957.935855,-6957.935855,-76915.987999
10452.408150,-6661.853478,-4885.359217,-75537.016103
10452.410727,296.082377,3108.864956,-77682.083497
10452.413303,5329.482782,-2516.700203,-78754.617194
10452.415880,888.247130,-2812.782580,-77528.864398
10452.418457,-592.164754,0.000000,-76456.330700
10452.421034,888.247130,-11103.089130,-78601.398095
10452.423611,1036.288319,-2072.576638,-76456.330700
10452.426188,-5625.565159,-1628.453072,-78907.836294
10452.428765,9622.677246,-2664.741391,-78754.617194
10452.431342,2516.700203,-6069.688724,-78141.740796
10452.433919,-2220.617826,-2664.741391,-78294.959896
10452.436496,11695.253884,-7105.977043,-77528.864398
10452.439073,7550.100608,-9622.677246,-79367.493593
10452.441650,2664.741391,-3997.112087,-78141.740796
10452.444227,5625.565159,-9770.718434,-78601.398095
10452.446804,6365.771101,-3552.988522,-76762.768900
10452.449381,-1924.535449,-1924.535449,-77069.207099
10452.451958,1184.329507,1184.329507,-78294.959896
10452.454535,5181.441594,-444.123565,-78601.398095
10452.457112,-11991.336260,5033.400406,-76762.768900
10452.459689,-6809.894666,6957.935855,-76609.549800
10452.462265,-7105.977043,3108.864956,-79367.493593
10452.464840,-2072.576638,2220.617826,-76915.987999
10452.467415,-2664.741391,6957.935855,-77528.864398
10452.469989,2368.659014,-2812.782580,-78601.398095
10452.472564,-3552.988522,444.123565,-78294.959896
10452.475139,-12139.377449,-1036.288319,-78754.617194
10452.477713,1332.370696,-296.082377,-76303.111601
10452.480288,1628.453072,2368.659014,-77222.426198
10452.482862,-5773.606348,4589.276840,-78754.617194
10452.485437,-888.247130,-1332.370696,-76456.330700
10452.488012,888.247130,1184.329507,-77835.302597
10452.490586,-6069.688724,4293.194464,-76915.987999
10452.493161,-1776.494261,2516.700203,-77682.083497
10452.495736,-2072.576638,3849.070898,-77222.426198
10452.498310,-13619.789333,4737.318029,-75996.673402
10452.500885,-5181.441594,8142.265362,-76762.768900
10452.503459,-4145.153275,2960.823768,-77835.302597
10452.506034,-4589.276840,4589.276840,-77988.521696
10452.508609,-5329.482782,5921.647536,-79061.055394
10452.511183,4293.194464,-5329.482782,-78448.178995
10452.513758,5921.647536,-9178.553681,-76303.111601
10452.516333,4145.153275,-7846.182985,-79214.274493
10452.518907,11991.336260,-7550.100608,-77222.426198
10452.521482,1924.535449,-10066.800811,-79214.274493
10452.524056,-1184.329507,-1184.329507,-77528.864398
10452.526631,1184.329507,-6365.771101,-77222.426198
10452.529206,3256.906145,-2664.741391,-79367.493593
10452.531780,592.164754,-296.082377,-77682.083497
10452.534355,9030.512492,-4589.276840,-78294.959896
10452.536929,9622.677246,-5329.482782,-77528.864398
10452.539504,-4589.276840,-4145.153275,-77222.426198
10452.542079,2072.576638,-5625.565159,-77835.302597
10452.544653,3701.029710,-8290.306550,-78448.178995
10452.547228,-5181.441594,740.205942,-76609.549800
10452.549803,7846.182985,-6217.729913,-77069.207099
10452.552377,6069.688724,-4737.318029,-77835.302597
10452.554952,4589.276840,-7698.141797,-76303.111601
10452.557526,5033.400406,-4441.235652,-77682.083497
10452.560101,10510.924376,-8882.471304,-77682.083497
10452.562676,-444.123565,-7698.141797,-77835.302597
10452.565250,2368.659014,-2072.576638,-76456.330700
10452.567823,2664.741391,-5329.482782,-77682.083497
10452.570396,3552.988522,148.041188,-75996.673402
10452.572969,-3849.070898,5329.482782,-78907.836294
10452.575542,-6957.935855,6661.853478,-76609.549800
10452.578115,-6217.729913,6513.812290,-77069.207099
10452.580687,-8142.265362,1628.453072,-76915.987999
10452.583260,740.205942,7846.182985,-77528.864398
10452.585833,2960.823768,-1184.329507,-78448.178995
10452.588406,-7254.018232,-1036.288319,-75383.797003
10452.590979,-6809.894666,1332.370696,-77528.864398
10452.593552,0.000000,-1036.288319,-77682.083497
10452.596125,-3849.070898,3256.906145,-77222.426198
10452.598698,-3701.029710,3108.864956,-78294.959896
10452.601270,2072.576638,740.205942,-78601.398095
10452.603843,-1036.288319,-1036.288319,-77835.302597
10452.606416,-7846.182985,2664.741391,-77835.302597
10452.608989,3701.029710,4293.194464,-78448.178995
10452.611562,-7105.977043,0.000000,-79061.055394
10452.614135,-13915.871710,7254.018232,-78601.398095
10452.616708,-6217.729913,3849.070898,-78141.740796
10452.619280,-7105.977043,7105.977043,-77222.426198
10452.621853,-2960.823768,0.000000,-77682.083497
10452.624426,-3701.029710,4885.359217,-77682.083497
10452.626999,5181.441594,-3256.906145,-76609.549800
10452.629572,3256.906145,-7254.018232,-75383.797003
10452.632145,10066.800811,-8882.471304,-77375.645298
10452.634718,7698.141797,-9474.636058,-78448.178995
10452.637291,2960.823768,-8734.430116,-77222.426198
10452.639863,3701.029710,-2812.782580,-77988.521696
10452.642436,4737.318029,-7254.018232,-77528.864398
10452.645009,-1332.370696,-1924.535449,-77988.521696
10452.647582,1036.288319,2368.659014,-77682.083497
10452.650155,6957.935855,-6069.688724,-77682.083497
10452.652728,2072.576638,-4293.194464,-76762.768900
10452.655301,-1776.494261,-3997.112087,-78294.959896
10452.657873,1036.288319,-6217.729913,-77988.521696
10452.660446,2072.576638,-5033.400406,-77375.645298
10452.663019,-6365.771101,-2960.823768,-78448.178995
10452.665592,13471.748144,-6069.688724,-77528.864398
10452.668165,6365.771101,-3108.864956,-77988.521696
10452.670698,2516.700203,-1480.411884,-77375.645298
10452.673232,10510.924376,-5921.647536,-78907.836294
10452.675765,8290.306550,-9918.759623,-79367.493593
10452.678298,888.247130,-4293.194464,-77528.864398
10452.680832,2072.576638,-6661.853478,-77988.521696
10452.683365,8290.306550,-1924.535449,-77528.864398
10452.685898,-3256.906145,148.041188,-78448.178995
10452.688432,-2960.823768,5625.565159,-79980.369991
10452.690965,-8290.306550,6217.729913,-78448.178995
10452.693498,-12731.542202,6661.853478,-76609.549800
10452.696032,-2664.741391,9030.512492,-77988.521696
10452.698565,1184.329507,-2368.659014,-80593.246390
10452.701098,-1184.329507,148.041188,-77222.426198
10452.703632,-4441.235652,-148.041188,-78754.617194
10452.706165,-2664.741391,-3108.864956,-77835.302597
10452.708698,-11695.253884,-1776.494261,-77222.426198
10452.711232,-3552.988522,4885.359217,-77988.521696
10452.713765,2664.741391,1924.535449,-78754.617194
10452.716298,7846.182985,1332.370696,-77528.864398
10452.718832,-8438.347739,1184.329507,-77528.864398
10452.721365,1776.494261,1628.453072,-78141.740796
10452.723898,-1036.288319,3108.864956,-78294.959896
10452.726432,-9474.636058,3849.070898,-78754.617194
10452.728965,-4293.194464,4441.235652,-78294.959896
10452.731498,-6513.812290,3997.112087,-77222.426198
10452.734032,-8586.388927,7846.182985,-75537.016103
10452.736565,-2220.617826,2812.782580,-79214.274493
10452.739098,-3701.029710,1776.494261,-78141.740796
10452.741632,2960.823768,-5033.400406,-76149.892501
10452.744165,6661.853478,-6661.853478,-77528.864398
10452.746698,11547.212695,-10066.800811,-78448.178995
10452.749232,2812.782580,-8586.388927,-77222.426198
10452.751765,4737.318029,-8586.388927,-79673.931792
10452.754299,3997.112087,-6217.729913,-78754.617194
10452.756832,-1036.288319,-1480.411884,-76915.987999
10452.759365,-4145.153275,1184.329507,-78907.836294
10452.761899,7402.059420,-296.082377,-78907.836294
10452.764432,7550.100608,-4441.235652,-78754.617194
10452.766965,-2072.576638,-2220.617826,-77682.083497
10452.769499,5033.400406,-7698.141797,-78907.836294
10452.772038,3997.112087,-6365.771101,-78448.178995
10452.774578,-4145.153275,-2072.576638,-79520.712692
10452.777118,4441.235652,-888.247130,-76915.987999
10452.779658,5625.565159,-5181.441594,-77835.302597
10452.782198,1628.453072,-2516.700203,-77682.083497
10452.784738,10807.006753,-6069.688724,-79061.055394
10452.787278,10807.006753,-5773.606348,-78448.178995
10452.789818,1628.453072,-8734.430116,-77222.426198
10452.792357,2664.741391,-7105.977043,-77528.864398
10452.794897,5033.400406,-5329.482782,-77069.207099
10452.797437,1184.329507,-1924.535449,-76915.987999
10452.799977,-5773.606348,5477.523971,-78754.617194
10452.802517,-4293.194464,4589.276840,-79061.055394
10452.805057,-14656.077652,9622.677246,-75230.577904
10452.807597,-5773.606348,10658.965565,-77069.207099
10452.810137,444.123565,296.082377,-79520.712692
10452.812676,-1776.494261,3256.906145,-77682.083497
10452.815216,-3256.906145,444.123565,-78754.617194
10452.817756,148.041188,-6809.894666,-77528.864398
10452.820296,-7846.182985,-296.082377,-76303.111601
10452.822836,-3997.112087,2960.823768,-76456.330700
10452.825376,296.082377,9030.512492,-77988.521696
10452.827916,2072.576638,-148.041188,-79061.055394
10452.830456,-6809.894666,4589.276840,-78448.178995
10452.832995,-888.247130,296.082377,-78448.178995
10452.835535,-3552.988522,2960.823768,-77528.864398
10452.838075,-8438.347739,4589.276840,-78141.740796
10452.840615,-5921.647536,1036.288319,-78907.836294
10452.843155,-4885.359217,7550.100608,-76609.549800
10452.845695,-7698.141797,3108.864956,-76149.892501
10452.848235,-6217.729913,6661.853478,-79367.493593
10452.850774,-1480.411884,1776.494261,-79214.274493
10452.853314,-2072.576638,-740.205942,-76149.892501
10452.855854,12287.418637,-7698.141797,-76762.768900
10452.858394,9474.636058,-12879.583391,-78754.617194
10452.860934,7846.182985,-8290.306550,-77222.426198
10452.863474,1924.535449,-10658.965565,-80440.027290
10452.866014,6661.853478,-7698.141797,-76303.111601
10452.868554,1184.329507,-1184.329507,-76609.549800
10452.871093,-2072.576638,-296.082377,-78141.740796
10452.873602,11843.295072,2220.617826,-76762.768900
10452.876111,4737.318029,-5625.565159,-78294.959896
10452.878619,-592.164754,-2368.659014,-76149.892501
10452.881127,1924.535449,-8438.347739,-78448.178995
10452.883636,5033.400406,-6957.935855,-77528.864398
10452.886144,-1332.370696,-1184.329507,-78907.836294
10452.888652,5921.647536,-6957.935855,-76915.987999
10452.891161,9326.594869,-3997.112087,-76149.892501
10452.893669,1628.453072,-5625.565159,-77222.426198
10452.896177,9622.677246,-1184.329507,-77682.083497
10452.898686,5773.606348,-6809.894666,-78294.959896
10452.901194,1480.411884,-8438.347739,-75996.673402
10452.903702,1924.535449,-6513.812290,-78141.740796
10452.906211,4441.235652,-7105.977043,-78141.740796
10452.908719,1776.494261,1184.329507,-76456.330700
10452.911227,-2072.576638,3701.029710,-79367.493593
10452.913736,-8882.471304,9326.594869,-79367.493593
10452.916244,-9918.759623,8290.306550,-75230.577904
10452.918752,-7994.224174,9474.636058,-77222.426198
10452.921261,2072.576638,1332.370696,-80133.589091
10452.923769,1332.370696,1332.370696,-77835.302597
10452.926277,-6217.729913,-148.041188,-78448.178995
10452.928786,-592.164754,-3701.029710,-77835.302597
10452.931294,-8882.471304,-2516.700203,-79827.150892
10452.933802,-3256.906145,1036.288319,-77682.083497
10452.936311,2960.823768,5921.647536,-78907.836294
10452.938819,444.123565,-148.041188,-78448.178995
10452.941327,-1628.453072,2072.576638,-76609.549800
10452.943836,-3701.029710,2960.823768,-78601.398095
10452.946344,-1776.494261,5033.400406,-76762.768900
10452.948852,-10066.800811,2664.741391,-77682.083497
10452.951360,-6661.853478,888.247130,-77835.302597
10452.953869,-2516.700203,5773.606348,-78601.398095
10452.956377,-6365.771101,4885.359217,-76456.330700
10452.958885,-5773.606348,6365.771101,-78448.178995
10452.961394,-2220.617826,2220.617826,-79061.055394
10452.963902,6661.853478,-7105.977043,-75996.673402
10452.966410,7105.977043,-5625.565159,-75230.577904
10452.968919,12879.583391,-12731.542202,-77988.521696
10452.971427,3108.864956,-9178.553681,-76609.549800
10452.973947,888.247130,-7402.059420,-79520.712692
10452.976468,4441.235652,-3256.906145,-78754.617194
10452.978988,1924.535449,-2220.617826,-77682.083497
10452.981509,-1332.370696,3552.988522,-75996.673402
10452.984029,9030.512492,-2664.741391,-77375.645298
10452.986549,8734.430116,0.000000,-75690.235202
10452.989070,-3108.864956,-5773.606348,-77682.083497
10452.991590,2368.659014,-5329.482782,-79214.274493
10452.994110,4293.194464,-4293.194464,-79214.274493
10452.996631,740.205942,-6957.935855,-77222.426198
10452.999151,-1184.329507,-1332.370696,-75843.454302
10453.001671,9474.636058,-4885.359217,-80133.589091
10453.004192,8734.430116,-5033.400406,-78294.959896
10453.006712,2368.659014,-1924.535449,-77835.302597
10453.009232,8290.306550,-10214.842000,-80440.027290
10453.011753,6217.729913,-7550.100608,-78141.740796
10453.014273,-2368.659014,-3256.906145,-78294.959896
10453.016793,7105.977043,-4441.235652,-76915.987999
10453.019314,-444.123565,148.041188,-79061.055394
10453.021834,-11843.295072,12879.583391,-76762.768900
10453.024354,-10214.842000,11843.295072,-78294.959896
10453.026875,-2368.659014,3997.112087,-77528.864398
10453.029395,-5625.565159,3701.029710,-75077.358804
10453.031916,3404.947333,2664.741391,-79520.712692
10453.034436,-296.082377,-3849.070898,-78141.740796
10453.036956,-8586.388927,-5033.400406,-76456.330700
10453.039477,-6809.894666,296.082377,-76915.987999
10453.041997,888.247130,1036.288319,-77375.645298
10453.044517,-2960.823768,3552.988522,-76762.768900
10453.047038,-5181.441594,1924.535449,-77835.302597
10453.049558,1776.494261,3108.864956,-78294.959896
10453.052078,148.041188,2220.617826,-77375.645298
10453.054599,-11991.336260,6069.688724,-79214.274493
10453.057119,-1184.329507,2812.782580,-78294.959896
10453.059639,-9474.636058,592.164754,-76762.768900
10453.062160,-8438.347739,8586.388927,-76762.768900
10453.064680,-740.205942,2368.659014,-79061.055394
10453.067200,-5921.647536,5773.606348,-77222.426198
10453.069721,-3404.947333,592.164754,-78601.398095
10453.072241,6809.894666,-6365.771101,-78601.398095
10453.074772,13619.789333,-6957.935855,-75383.797003
10453.077302,2368.659014,-13027.624579,-76456.330700
10453.079833,5329.482782,-7402.059420,-78754.617194
10453.082364,6957.935855,-13175.665768,-79520.712692
10453.084894,-5181.441594,-2960.823768,-76303.111601
10453.087425,2664.741391,1184.329507,-77682.083497
10453.089955,5329.482782,-296.082377,-77682.083497
10453.092486,9622.677246,740.205942,-77069.207099
10453.095017,-2516.700203,-1776.494261,-77069.207099
10453.097547,3552.988522,-9326.594869,-78141.740796
10453.100078,2220.617826,-5921.647536,-76456.330700
10453.102609,-4145.153275,-8142.265362,-79214.274493
10453.105139,6809.894666,-4145.153275,-78141.740796
10453.107670,4885.359217,-9030.512492,-76149.892501
10453.110200,-148.041188,444.123565,-77682.083497
10453.112731,13027.624579,-7846.182985,-79367.493593
10453.115262,10658.965565,-5921.647536,-78601.398095
10453.117792,3108.864956,-6513.812290,-77069.207099
10453.120323,1924.535449,-9178.553681,-77682.083497
10453.122853,5625.565159,-6513.812290,-75996.673402
10453.125384,-148.041188,-1776.494261,-76762.768900
10453.127915,-3256.906145,4589.276840,-77375.645298
10453.130445,-6957.935855,7994.224174,-77682.083497
10453.132976,-14063.912898,13767.830521,-76149.892501
10453.135507,-5625.565159,8882.471304,-77988.521696
10453.138037,4145.153275,2368.659014,-77835.302597
10453.140568,-3256.906145,-3108.864956,-77682.083497
10453.143098,-740.205942,3404.947333,-77069.207099
10453.145629,-5921.647536,-6957.935855,-78448.178995
10453.148160,-13175.665768,-1480.411884,-76762.768900
10453.150690,888.247130,4589.276840,-79520.712692
10453.153221,1628.453072,-148.041188,-78448.178995
10453.155752,-1184.329507,6661.853478,-75843.454302
10453.158282,-7698.141797,2960.823768,-77835.302597
10453.160813,-2072.576638,2812.782580,-79520.712692
10453.163343,-3997.112087,7846.182985,-78141.740796
10453.165874,-13471.748144,2368.659014,-78907.836294
10453.168405,-2072.576638,4293.194464,-79061.055394
10453.170935,-1628.453072,1924.535449,-77835.302597
10453.173466,-8290.306550,7846.182985,-76915.987999
10453.176005,-5329.482782,5477.523971,-79214.274493
10453.178543,1184.329507,-1036.288319,-78601.398095
10453.181082,6957.935855,-5329.482782,-76303.111601
10453.183621,5033.400406,-9178.553681,-78294.959896
10453.186159,12435.459826,-13323.706956,-77835.302597
10453.188698,740.205942,-13471.748144,-79061.055394
10453.191237,-1036.288319,-6069.688724,-78601.398095
10453.193775,740.205942,-1776.494261,-77222.426198
10453.196314,0.000000,-3256.906145,-77375.645298
10453.198853,5477.523971,3256.906145,-78141.740796
10453.201391,9622.677246,-3701.029710,-78294.959896
10453.203930,2368.659014,-5625.565159,-75690.235202
10453.206469,-1924.535449,-5181.441594,-79214.274493
10453.209008,1184.329507,-7846.182985,-78601.398095
10453.211546,7402.059420,-3404.947333,-77682.083497
10453.214085,-2960.823768,-7105.977043,-77375.645298
10453.216624,10658.965565,-4885.359217,-75690.235202
10453.219162,11399.171507,-4441.235652,-76762.768900
10453.221701,888.247130,-4441.235652,-78448.178995
10453.224240,11251.130318,-6217.729913,-79061.055394
10453.226778,6069.688724,-7994.224174,-76762.768900
10453.229317,-3552.988522,-4885.359217,-75537.016103
10453.231856,1036.288319,-3552.988522,-76609.549800
10453.234395,3552.988522,2960.823768,-76762.768900
10453.236933,-14359.995275,6957.935855,-77835.302597
10453.239472,-10658.965565,15248.242405,-78141.740796
10453.242011,-4145.153275,8290.306550,-78448.178995
10453.244549,-6217.729913,7402.059420,-74311.263306
10453.247088,1480.411884,1036.288319,-79061.055394
10453.249627,740.205942,-5181.441594,-78907.836294
10453.252165,-5625.565159,-1628.453072,-76149.892501
10453.254704,-10955.047942,-3108.864956,-79061.055394
10453.257243,-296.082377,-1184.329507,-79673.931792
10453.259782,5773.606348,4145.153275,-78294.959896
10453.262320,-7402.059420,8438.347739,-78448.178995
10453.264859,3404.947333,-148.041188,-77988.521696
10453.267398,-4145.153275,2516.700203,-78907.836294
10453.269936,-7550.100608,5773.606348,-78754.617194
10453.272475,-7402.059420,5033.400406,-76915.987999
10453.275014,-5921.647536,2516.700203,-76456.330700
10453.277559,-4293.194464,4885.359217,-77069.207099
10453.280104,-4589.276840,2960.823768,-77682.083497
10453.282650,-3849.070898,6069.688724,-77835.302597
10453.285195,-2812.782580,1480.411884,-77835.302597
10453.287741,11251.130318,-6069.688724,-78448.178995
10453.290286,14063.912898,-9474.636058,-77988.521696
10453.292831,1184.329507,-13323.706956,-77222.426198
10453.295377,2368.659014,-8586.388927,-78448.178995
10453.297922,3701.029710,-13323.706956,-78754.617194
10453.300468,-3701.029710,1628.453072,-75077.358804
10453.303013,1480.411884,3108.864956,-77835.302597
10453.305558,9030.512492,-1332.370696,-79061.055394
10453.308104,7254.018232,-148.041188,-76303.111601
10453.310649,-5921.647536,-2960.823768,-78294.959896
10453.313195,7254.018232,-5625.565159,-77222.426198
10453.315740,4589.276840,-4885.359217,-77988.521696
10453.318285,-3108.864956,-9030.512492,-79673.931792
10453.320831,7698.141797,-2072.576638,-74311.263306
10453.323376,8438.347739,-6365.771101,-77528.864398
10453.325922,2072.576638,0.000000,-77988.521696
10453.328467,9178.553681,-7402.059420,-79520.712692
10453.331012,8882.471304,-6365.771101,-78907.836294
10453.333558,-3108.864956,-4737.318029,-77069.207099
10453.336103,3997.112087,-4145.153275,-78754.617194
10453.338648,6217.729913,-3256.906145,-77988.521696
10453.341194,-10510.924376,-592.164754,-78141.740796
10453.343739,-13175.665768,12731.542202,-77682.083497
10453.346285,-6365.771101,9178.553681,-78294.959896
10453.348830,-7254.018232,10066.800811,-77069.207099
10453.351375,-3552.988522,5625.565159,-77835.302597
10453.353921,3552.988522,-2368.659014,-78754.617194
10453.356466,-4885.359217,-3256.906145,-78601.398095
10453.359017,-6365.771101,-3108.864956,-77375.645298
10453.361568,-1332.370696,-3404.947333,-77069.207099
10453.364118,5773.606348,444.123565,-78601.398095
10453.366669,-3108.864956,9326.594869,-77375.645298
10453.369220,2516.700203,2072.576638,-78141.740796
10453.371770,444.123565,4589.276840,-76762.768900
10453.374321,-9030.512492,2664.741391,-79061.055394
10453.376872,-2812.782580,4589.276840,-79367.493593
10453.379422,-7105.977043,2072.576638,-77528.864398
10453.381973,-11991.336260,296.082377,-77222.426198
10453.384524,-1776.494261,6661.853478,-77528.864398
10453.387074,-3108.864956,1628.453072,-77528.864398
10453.389625,-9326.594869,8734.430116,-75843.454302
10453.392176,8586.388927,-3404.947333,-80133.589091
10453.394726,12435.459826,-8142.265362,-77835.302597
10453.397277,6661.853478,-10510.924376,-77222.426198
10453.399828,5625.565159,-9622.677246,-77069.207099
10453.402378,5625.565159,-13323.706956,-78601.398095
10453.404929,-2664.741391,-4145.153275,-77682.083497
10453.407480,-740.205942,2072.576638,-76609.549800
10453.410030,6957.935855,1184.329507,-78294.959896
10453.412581,7698.141797,-2960.823768,-77528.864398
10453.415132,-740.205942,-888.247130,-76456.330700
10453.417682,-6069.688724,-6365.771101,-76762.768900
10453.420233,6661.853478,-6365.771101,-77222.426198
10453.422784,-3256.906145,-8438.347739,-78907.836294
10453.425334,6365.771101,-4293.194464,-77528.864398
10453.427885,8290.306550,-7254.018232,-77835.302597
10453.430436,6069.688724,-7105.977043,-76609.549800
10453.432986,6809.894666,-1924.535449,-78141.740796
10453.435537,7698.141797,-9918.759623,-79673.931792
10453.438088,2368.659014,-5181.441594,-75537.016103
10453.440638,-1184.329507,-2220.617826,-77988.521696
10453.443189,8290.306550,-9030.512492,-78448.178995
10453.445740,-2960.823768,-296.082377,-76915.987999
10453.448290,-13471.748144,7402.059420,-78141.740796
10453.450841,-6661.853478,14656.077652,-77375.645298
10453.453392,-2220.617826,9326.594869,-75537.016103
10453.455942,-5625.565159,7698.141797,-74617.701505
10453.458493,148.041188,-1184.329507,-79061.055394
10453.461048,1480.411884,-2664.741391,-76762.768900
10453.463604,-6957.935855,-148.041188,-76915.987999
10453.466159,-7698.141797,-148.041188,-77528.864398
10453.468715,2812.782580,-888.247130,-79061.055394
10453.471270,-3404.947333,4293.194464,-78448.178995
10453.473826,-1924.535449,5773.606348,-76915.987999
10453.476381,-2368.659014,2220.617826,-77069.207099
10453.478937,-7994.224174,888.247130,-77835.302597
10453.481492,-10807.006753,9474.636058,-79214.274493
10453.484047,-6069.688724,3108.864956,-78448.178995
10453.486603,-11991.336260,296.082377,-77528.864398
10453.489158,-4441.235652,7254.018232,-77069.207099
10453.491714,-3108.864956,0.000000,-79367.493593
10453.494269,-8882.471304,6957.935855,-78448.178995
10453.496825,8882.471304,-4589.276840,-78141.740796
10453.499380,10214.842000,-9622.677246,-77988.521696
10453.501936,14952.160028,-11547.212695,-76762.768900
10453.504491,-1184.329507,-11695.253884,-77528.864398
10453.507046,7105.977043,-11695.253884,-78907.836294
10453.509602,1332.370696,-3849.070898,-79061.055394
10453.512157,-2516.700203,1184.329507,-77682.083497
10453.514713,9622.677246,888.247130,-78754.617194
10453.517268,8438.347739,-2812.782580,-76609.549800
10453.519824,-592.164754,-3552.988522,-74464.482406
10453.522379,-444.123565,-4293.194464,-77375.645298
10453.524935,1776.494261,-5477.523971,-77682.083497
10453.527490,0.000000,-5329.482782,-77222.426198
10453.530045,1776.494261,-5329.482782,-77682.083497
10453.532601,8882.471304,-8734.430116,-75230.577904
10453.535156,2368.659014,-5181.441594,-75690.235202
10453.537712,7994.224174,-2812.782580,-78601.398095
10453.540267,9030.512492,-6365.771101,-78448.178995
10453.542823,4885.359217,-4293.194464,-76456.330700
10453.545378,-2368.659014,-2664.741391,-78294.959896
10453.547934,6217.729913,-7105.977043,-76915.987999
10453.550489,-5181.441594,2664.741391,-77988.521696
10453.553044,-16136.489536,9770.718434,-78448.178995
10453.555600,-6513.812290,12583.501014,-79520.712692
10453.558155,-4737.318029,7994.224174,-78601.398095
10453.560711,-4737.318029,8586.388927,-77375.645298
10453.563235,740.205942,-3404.947333,-78907.836294
10453.565760,1628.453072,-2072.576638,-77222.426198
10453.568284,-10362.883188,-3552.988522,-78754.617194
10453.570808,-4737.318029,-1184.329507,-78754.617194
10453.573333,1924.535449,2072.576638,-78294.959896
10453.575857,444.123565,5181.441594,-76762.768900
10453.578381,-2220.617826,5625.565159,-77069.207099
10453.580906,1332.370696,2664.741391,-75383.797003
10453.583430,-10807.006753,4589.276840,-77222.426198
10453.585954,-11695.253884,5329.482782,-80133.589091
10453.588479,-4589.276840,4145.153275,-77069.207099
10453.591003,-6365.771101,-740.205942,-75843.454302
10453.593527,-3552.988522,7846.182985,-76456.330700
10453.596052,-6069.688724,1628.453072,-79214.274493
10453.598576,-2220.617826,2960.823768,-77375.645298
10453.601100,9622.677246,-4145.153275,-78294.959896
10453.603625,10807.006753,-8438.347739,-78141.740796
10453.606149,6069.688724,-11843.295072,-77682.083497
10453.608673,-2072.576638,-12435.459826,-78448.178995
10453.611198,4145.153275,-9474.636058,-77988.521696
10453.613722,1184.329507,-3552.988522,-77835.302597
10453.616246,-444.123565,5477.523971,-77222.426198
10453.618771,3256.906145,-1332.370696,-79367.493593
10453.621295,5921.647536,-3997.112087,-77375.645298
10453.623819,-2072.576638,-296.082377,-75843.454302
10453.626344,1924.535449,-4589.276840,-77682.083497
10453.628868,3404.947333,-9178.553681,-78294.959896
10453.631393,2220.617826,-6217.729913,-77682.083497
10453.633917,2220.617826,-5921.647536,-78754.617194
10453.636441,11399.171507,-7550.100608,-76149.892501
10453.638966,4441.235652,-5181.441594,-75996.673402
10453.641490,7550.100608,-4145.153275,-77222.426198
10453.644014,7994.224174,-9030.512492,-78294.959896
10453.646539,-740.205942,-4145.153275,-76915.987999
10453.649063,0.000000,-2664.741391,-77682.083497
10453.651587,5181.441594,-592.164754,-76609.549800
10453.654112,-9326.594869,4737.318029,-78294.959896
10453.656636,-16580.613101,15692.365970,-76456.330700
10453.659160,-2812.782580,9918.759623,-79520.712692
10453.661685,0.000000,9030.512492,-76762.768900
10453.664219,-4441.235652,2516.700203,-78141.740796
10453.666753,888.247130,-2812.782580,-78141.740796
10453.669287,-3404.947333,-3256.906145,-77528.864398
10453.671821,-11399.171507,-2516.700203,-79214.274493
10453.674355,-3256.906145,3701.029710,-77988.521696
10453.676889,6365.771101,2960.823768,-78601.398095
10453.679423,-4885.359217,2368.659014,-76762.768900
10453.681957,-1776.494261,7698.141797,-76762.768900
10453.684491,-4145.153275,2516.700203,-79061.055394
10453.687025,-10214.842000,5477.523971,-78601.398095
10453.689560,-10955.047942,4145.153275,-79673.931792
10453.692094,-1924.535449,6217.729913,-76762.768900
10453.694628,-7550.100608,888.247130,-77069.207099
10453.697162,-9622.677246,5181.441594,-77069.207099
10453.699696,1036.288319,3108.864956,-79520.712692
10453.702230,9622.677246,-7698.141797,-77375.645298
10453.704764,6661.853478,-4145.153275,-78448.178995
10453.707298,13915.871710,-15248.242405,-79673.931792
10453.709832,2516.700203,-11547.212695,-76456.330700
10453.712366,-1036.288319,-10658.965565,-77835.302597
10453.714900,444.123565,-4441.235652,-77222.426198
10453.717434,296.082377,-1332.370696,-77988.521696
10453.719969,4293.194464,3997.112087,-76915.987999
10453.722503,4737.318029,-1036.288319,-77222.426198
10453.725037,1480.411884,-3849.070898,-76456.330700
10453.727571,-2516.700203,-4145.153275,-78448.178995
10453.730105,-2072.576638,-4885.359217,-78907.836294
10453.732639,5773.606348,-5625.565159,-79061.055394
10453.735173,1628.453072,-4293.194464,-77375.645298
10453.737707,10214.842000,-7846.182985,-77375.645298
10453.740241,12435.459826,-4737.318029,-77069.207099
10453.742775,2812.782580,-8290.306550,-78448.178995
10453.745309,3701.029710,-1628.453072,-79061.055394
10453.747843,6069.688724,-6957.935855,-79061.055394
10453.750378,-1924.535449,-6809.894666,-76303.111601
10453.752912,-740.205942,1036.288319,-77222.426198
10453.755446,-5773.606348,2812.782580,-78141.740796
10453.757980,-13323.706956,13175.665768,-75843.454302
10453.760514,-7846.182985,9770.718434,-78601.398095
10453.763048,296.082377,11251.130318,-77222.426198
10453.765590,888.247130,-888.247130,-77375.645298
10453.768133,-7846.182985,-2812.782580,-76456.330700
10453.770676,6069.688724,-2960.823768,-77069.207099
10453.773218,-5033.400406,-4589.276840,-78601.398095
10453.775761,-9326.594869,5181.441594,-79061.055394
10453.778303,5329.482782,-296.082377,-79520.712692
10453.780846,1628.453072,3552.988522,-76303.111601
10453.783388,-4145.153275,5773.606348,-76915.987999
10453.785931,-9622.677246,5033.400406,-77069.207099
10453.788473,-3849.070898,2812.782580,-78754.617194
10453.791016,-15692.365970,6069.688724,-78294.959896
10453.793559,-5181.441594,5181.441594,-77682.083497
10453.796101,-2664.741391,-888.247130,-77375.645298
10453.798644,-8142.265362,6365.771101,-74924.139704
10453.801186,-1628.453072,3108.864956,-79214.274493
10453.803729,15692.365970,-5921.647536,-78448.178995
10453.806271,3404.947333,-7105.977043,-77835.302597
10453.808814,4293.194464,-12139.377449,-78907.836294
10453.811356,6809.894666,-15988.448347,-79980.369991
10453.813899,1776.494261,-12731.542202,-76456.330700
10453.816441,-4885.359217,592.164754,-76609.549800
10453.818984,9030.512492,1036.288319,-78601.398095
10453.821527,11843.295072,-888.247130,-77682.083497
10453.824069,888.247130,-2220.617826,-75690.235202
10453.826612,-296.082377,-3256.906145,-76915.987999
10453.829154,5625.565159,-5181.441594,-78294.959896
10453.831697,2220.617826,-5477.523971,-78907.836294
10453.834239,-5033.400406,-4885.359217,-78448.178995
10453.836782,15544.324782,-9178.553681,-76609.549800
10453.839324,6809.894666,-8142.265362,-75843.454302
10453.841867,7254.018232,-3108.864956,-77682.083497
10453.844410,7254.018232,-8882.471304,-79827.150892
10453.846952,1628.453072,-6365.771101,-77069.207099
10453.849495,-444.123565,-2664.741391,-77835.302597
10453.852037,7698.141797,-6069.688724,-78754.617194
10453.854580,-5181.441594,4589.276840,-76303.111601
10453.857122,-17024.736666,9918.759623,-77069.207099
10453.859665,-4589.276840,13619.789333,-78141.740796
10453.862207,-1776.494261,7254.018232,-78907.836294
10453.864750,-3997.112087,10214.842000,-75996.673402
10453.867302,3701.029710,-4293.194464,-79367.493593
10453.869852,1036.288319,-5625.565159,-76609.549800
10453.872401,-14063.912898,-2812.782580,-78754.617194
10453.874951,-888.247130,1036.288319,-78141.740796
10453.877501,4589.276840,3108.864956,-77069.207099
10453.880050,-1332.370696,888.247130,-76915.987999
10453.882600,-4737.318029,7402.059420,-76303.111601
10453.885150,-296.082377,1480.411884,-76915.987999
10453.887699,-15248.242405,4441.235652,-76915.987999
10453.890249,-10955.047942,7698.141797,-79214.274493
10453.892799,-7402.059420,2220.617826,-77682.083497
10453.895348,-4589.276840,4293.194464,-76303.111601
10453.897898,-5773.606348,6957.935855,-77222.426198
10453.900448,740.205942,-888.247130,-78754.617194
10453.902998,11399.171507,-5921.647536,-77988.521696
10453.905547,4145.153275,-7254.018232,-79520.712692
10453.908097,11547.212695,-10510.924376,-77835.302597
10453.910647,5181.441594,-12879.583391,-77988.521696
10453.913196,-4589.276840,-11399.171507,-78601.398095
10453.915746,4293.194464,-4885.359217,-77988.521696
10453.918296,2516.700203,-1924.535449,-79061.055394
10453.920845,296.082377,7402.059420,-77682.083497
10453.923395,7550.100608,296.082377,-79061.055394
10453.925945,2812.782580,-4885.359217,-76303.111601
10453.928495,-3849.070898,-5329.482782,-76456.330700
10453.931044,1332.370696,-6513.812290,-78754.617194
10453.933594,5033.400406,-7402.059420,-78448.178995
10453.936144,2812.782580,-7254.018232,-77375.645298
10453.938693,9918.759623,-7105.977043,-76303.111601
10453.941243,13767.830521,-4589.276840,-76609.549800
10453.943793,444.123565,-5773.606348,-76915.987999
10453.946342,-1184.329507,-2960.823768,-78141.740796
10453.948892,4885.359217,-6217.729913,-79214.274493
10453.951442,444.123565,-6661.853478,-76915.987999
10453.953992,-6661.853478,7105.977043,-76303.111601
10453.956541,-6957.935855,3404.947333,-78141.740796
10453.959091,-14063.912898,15544.324782,-75383.797003
10453.961641,-5477.523971,10658.965565,-79367.493593
10453.964190,2664.741391,7994.224174,-78141.740796
10453.966740,-4885.359217,-1924.535449,-77375.645298
10453.969295,-11103.089130,-4441.235652,-78141.740796
10453.971850,-148.041188,148.041188,-78141.740796
10453.974405,-2220.617826,-4885.359217,-78294.959896
10453.976960,-2960.823768,5033.400406,-77528.864398
10453.979515,1628.453072,3849.070898,-80593.246390
10453.982069,1924.535449,3997.112087,-77222.426198
10453.984624,-8142.265362,7105.977043,-77069.207099
10453.987179,-4589.276840,3701.029710,-77528.864398
10453.989734,-9770.718434,5181.441594,-77682.083497
10453.992289,-11103.089130,-296.082377,-78141.740796
10453.994844,-5033.400406,6661.853478,-76762.768900
10453.997399,-296.082377,3404.947333,-76456.330700
10453.999954,-8438.347739,1776.494261,-76303.111601
10454.002509,9474.636058,-1332.370696,-78141.740796
10454.005064,10658.965565,-10658.965565,-78141.740796
10454.007619,5329.482782,-7550.100608,-76149.892501
10454.010173,3997.112087,-13619.789333,-77682.083497
10454.012728,4885.359217,-12139.377449,-79061.055394
10454.015283,-1184.329507,-3701.029710,-76915.987999
10454.017838,-2812.782580,2516.700203,-77988.521696
10454.020393,7550.100608,1184.329507,-79520.712692
10454.022948,5921.647536,-5033.400406,-77988.521696
10454.025503,-3256.906145,2516.700203,-77835.302597
10454.028058,3849.070898,-6957.935855,-77835.302597
10454.030613,2516.700203,-7846.182985,-79520.712692
10454.033168,-4589.276840,-7402.059420,-77069.207099
10454.035723,10658.965565,-6513.812290,-77375.645298
10454.038277,11399.171507,-5921.647536,-76303.111601
10454.040832,7994.224174,-5625.565159,-77988.521696
10454.043387,5033.400406,-9918.759623,-78907.836294
10454.045942,9326.594869,-5625.565159,-77682.083497
10454.048497,-3404.947333,-3256.906145,-77222.426198
10454.051052,5477.523971,-2664.741391,-78294.959896
10454.053607,-4145.153275,1332.370696,-79367.493593
10454.056162,-13027.624579,8734.430116,-76915.987999
10454.058717,-10362.883188,15544.324782,-78601.398095
10454.061272,444.123565,7846.182985,-77682.083497
10454.063827,-2220.617826,6957.935855,-76609.549800
10454.066381,-3552.988522,-1480.411884,-78294.959896
10454.068936,1924.535449,-5625.565159,-77988.521696
10454.071496,-8142.265362,-3701.029710,-77682.083497
10454.074056,-6513.812290,5477.523971,-77682.083497
10454.076615,6957.935855,-444.123565,-78294.959896
10454.079175,1776.494261,296.082377,-78141.740796
10454.081734,-4737.318029,9918.759623,-76303.111601
10454.084294,-4737.318029,1184.329507,-78448.178995
10454.086854,-6513.812290,9030.512492,-77988.521696
10454.089413,-15988.448347,3552.988522,-78754.617194
10454.091973,-2368.659014,3108.864956,-79673.931792
10454.094532,-1332.370696,1628.453072,-76149.892501
10454.097092,-10510.924376,6365.771101,-76303.111601
10454.099652,5477.523971,2516.700203,-77988.521696
10454.102211,12435.459826,-11103.089130,-78141.740796
10454.104771,3997.112087,-7402.059420,-76762.768900
10454.107330,8290.306550,-11843.295072,-78294.959896
10454.109890,4885.359217,-16432.571912,-79061.055394
10454.112450,-2072.576638,-9770.718434,-76149.892501
10454.115009,-444.123565,-444.123565,-78141.740796
10454.117569,9918.759623,1628.453072,-76762.768900
10454.120128,-1776.494261,-3552.988522,-77069.207099
10454.122688,1776.494261,2812.782580,-77069.207099
10454.125248,4589.276840,-5477.523971,-76456.330700
10454.127807,1776.494261,-7846.182985,-77835.302597
10454.130367,-1924.535449,-888.247130,-78754.617194
10454.132926,8142.265362,-11695.253884,-80746.465489
10454.135486,8734.430116,-4293.194464,-75230.577904
10454.138046,5181.441594,-4589.276840,-78601.398095
10454.140605,10658.965565,-5033.400406,-77528.864398
10454.143165,7846.182985,-9622.677246,-78601.398095
10454.145724,-4885.359217,-4885.359217,-79061.055394
10454.148284,5181.441594,-296.082377,-77375.645298
10454.150844,-2368.659014,296.082377,-78141.740796
10454.153403,-15100.201217,7402.059420,-77835.302597
10454.155963,-8438.347739,11991.336260,-78907.836294
10454.158523,-888.247130,11251.130318,-77528.864398
10454.161082,-4589.276840,9030.512492,-76149.892501
10454.163642,1184.329507,1480.411884,-78294.959896
10454.166201,2072.576638,-4145.153275,-76456.330700
10454.168761,-10362.883188,-3849.070898,-76609.549800
10454.171321,-8438.347739,-592.164754,-77988.521696
10454.173883,6069.688724,-148.041188,-77988.521696
10454.176446,-2664.741391,4145.153275,-77682.083497
10454.179009,-1924.535449,8882.471304,-76149.892501
10454.181571,-2368.659014,1036.288319,-78294.959896
10454.184134,-7846.182985,8290.306550,-74770.920605
10454.186697,-15988.448347,3849.070898,-80746.465489
10454.189259,-4885.359217,3701.029710,-79367.493593
10454.191822,-5181.441594,0.000000,-75690.235202
10454.194385,-11695.253884,5773.606348,-76303.111601
10454.196947,3108.864956,5181.441594,-77528.864398
10454.199510,14211.954086,-9030.512492,-77682.083497
10454.202073,2812.782580,-4885.359217,-77988.521696
10454.204635,9326.594869,-13915.871710,-80286.808190
10454.207198,5773.606348,-10807.006753,-76762.768900
10454.209761,-1480.411884,-10066.800811,-78448.178995
10454.212323,-740.205942,-5625.565159,-79061.055394
10454.214886,7698.141797,-148.041188,-79367.493593
10454.217449,3997.112087,740.205942,-77375.645298
10454.220011,-1036.288319,740.205942,-77222.426198
10454.222574,5181.441594,-5625.565159,-78294.959896
10454.225137,-3849.070898,-8142.265362,-76456.330700
10454.227699,-296.082377,-3701.029710,-77375.645298
10454.230262,5329.482782,-6513.812290,-77835.302597
10454.232825,1924.535449,-11103.089130,-77222.426198
10454.235387,11103.089130,-3404.947333,-76303.111601
10454.237950,11547.212695,-8438.347739,-77835.302597
10454.240513,8142.265362,-7994.224174,-79520.712692
10454.243075,-3256.906145,-4293.194464,-78448.178995
10454.245638,5329.482782,-1036.288319,-77988.521696
10454.248201,-3256.906145,1480.411884,-78141.740796
10454.250763,-14063.912898,9918.759623,-76915.987999
10454.253326,-11251.130318,13767.830521,-78141.740796
10454.255889,-1332.370696,6957.935855,-76456.330700
10454.258451,-2220.617826,10658.965565,-74311.263306
10454.261014,-2220.617826,-2368.659014,-80133.589091
10454.263577,1480.411884,-4885.359217,-77835.302597
10454.266139,-3404.947333,-1480.411884,-77988.521696
10454.268702,-8438.347739,-1332.370696,-79214.274493
10454.271265,5773.606348,3552.988522,-77988.521696
10454.273827,5921.647536,-592.164754,-78294.959896
10454.276393,-10214.842000,7402.059420,-77988.521696
10454.278958,2368.659014,4589.276840,-77682.083497
10454.281523,-9918.759623,6069.688724,-78294.959896
10454.284088,-15248.242405,2516.700203,-78141.740796
10454.286654,-4589.276840,2812.782580,-78907.836294
10454.289219,-296.082377,1332.370696,-76915.987999
10454.291784,-6365.771101,9622.677246,-75690.235202
10454.294350,5921.647536,-2812.782580,-77682.083497
10454.296915,13767.830521,-8734.430116,-76762.768900
10454.299480,2368.659014,-6661.853478,-77375.645298
10454.302045,8142.265362,-9326.594869,-77988.521696
10454.304611,5921.647536,-14359.995275,-78448.178995
10454.307176,-1480.411884,-11103.089130,-76456.330700
10454.309741,444.123565,5773.606348,-77528.864398
10454.312307,5033.400406,-1480.411884,-79367.493593
10454.314872,2664.741391,296.082377,-76149.892501
10454.317437,-1036.288319,-1036.288319,-78907.836294
10454.320002,2368.659014,-5921.647536,-76762.768900
10454.322568,-444.123565,-6957.935855,-77988.521696
10454.325133,-4145.153275,-3108.864956,-78754.617194
10454.327698,10658.965565,-10066.800811,-79214.274493
10454.330264,8734.430116,-9622.677246,-77682.083497
10454.332829,4441.235652,-1776.494261,-76456.330700
10454.335394,11695.253884,-7846.182985,-80593.246390
10454.337959,4589.276840,-9770.718434,-78601.398095
10454.340525,-148.041188,-592.164754,-77835.302597
10454.343090,2368.659014,-5329.482782,-79214.274493
10454.345655,-6957.935855,3404.947333,-77222.426198
10454.348221,-15840.407159,9770.718434,-76762.768900
10454.350786,-5477.523971,13915.871710,-77069.207099
10454.353351,2812.782580,8290.306550,-76609.549800
10454.355916,-6217.729913,4145.153275,-76149.892501
10454.358482,1332.370696,-1776.494261,-77375.645298
10454.361047,-3552.988522,-8586.388927,-77375.645298
10454.363612,-8290.306550,-3108.864956,-76609.549800
10454.366178,-5181.441594,4293.194464,-77528.864398
10454.368743,5921.647536,-2960.823768,-77222.426198
10454.371308,-444.123565,6217.729913,-75077.358804
10454.373874,-4737.318029,5921.647536,-77528.864398
10454.376439,-740.205942,9622.677246,-77375.645298
10454.379006,-10510.924376,2960.823768,-79520.712692
10454.381574,-16432.571912,8438.347739,-78907.836294
10454.384142,444.123565,-148.041188,-78601.398095
10454.386709,-5773.606348,2368.659014,-74617.701505
10454.389277,-3552.988522,6661.853478,-76456.330700
10454.391845,8734.430116,-8142.265362,-78754.617194
10454.394412,11103.089130,-9178.553681,-77069.207099
10454.396980,5921.647536,-7698.141797,-78141.740796
10454.399548,592.164754,-10066.800811,-78601.398095
10454.402115,6809.894666,-14804.118840,-76762.768900
10454.404683,-5329.482782,-7105.977043,-76303.111601
10454.407250,8290.306550,2812.782580,-77069.207099
10454.409818,10362.883188,2220.617826,-77835.302597
10454.412386,1776.494261,-2960.823768,-76762.768900
10454.414953,-592.164754,-2664.741391,-77682.083497
10454.417521,3552.988522,-6217.729913,-75843.454302
10454.420089,3404.947333,-7698.141797,-77835.302597
10454.422656,-2368.659014,-3701.029710,-78448.178995
10454.425224,12287.418637,-12287.418637,-78448.178995
10454.427792,7994.224174,-5625.565159,-75690.235202
10454.430359,6661.853478,-4885.359217,-77682.083497
10454.432927,7105.977043,-5921.647536,-77988.521696
10454.435495,-1628.453072,-7254.018232,-77375.645298
10454.438062,888.247130,-2516.700203,-77682.083497
10454.440630,1776.494261,-444.123565,-76456.330700
10454.443197,-9622.677246,5773.606348,-78601.398095
10454.445765,-15692.365970,17172.777854,-76762.768900
10454.448333,1480.411884,8882.471304,-78907.836294
10454.450900,-444.123565,6365.771101,-75996.673402
10454.453468,-444.123565,1924.535449,-76915.987999
10454.456036,-4441.235652,-6069.688724,-78907.836294
10454.458603,-1480.411884,-4737.318029,-76456.330700
10454.461172,-7550.100608,0.000000,-78754.617194
10454.463741,-148.041188,2368.659014,-77988.521696
10454.466310,8290.306550,2664.741391,-77069.207099
10454.468879,-4885.359217,3849.070898,-76762.768900
10454.471448,-6365.771101,11103.089130,-77375.645298
10454.474016,-10658.965565,4293.194464,-77069.207099
10454.476585,-14359.995275,740.205942,-76456.330700
10454.479154,-7698.141797,4885.359217,-77835.302597
10454.481723,0.000000,1924.535449,-76915.987999
10454.484292,-7550.100608,4589.276840,-75996.673402
10454.486861,8142.265362,-1332.370696,-80286.808190
10454.489429,14656.077652,-6957.935855,-76149.892501
10454.491998,9474.636058,-13027.624579,-76915.987999
10454.494567,-3108.864956,-6217.729913,-75537.016103
10454.497136,6661.853478,-16728.654289,-81512.560987
10454.499705,-444.123565,-7402.059420,-76609.549800
10454.502274,296.082377,1924.535449,-76149.892501
10454.504842,8882.471304,-592.164754,-78448.178995
10454.507411,7994.224174,1776.494261,-77528.864398
10454.509980,-2812.782580,-2812.782580,-76609.549800
10454.512549,-5921.647536,-1036.288319,-77222.426198
10454.515118,4737.318029,-10066.800811,-79827.150892
10454.517687,-3552.988522,-6513.812290,-77835.302597
10454.520256,9622.677246,-8586.388927,-76762.768900
10454.522824,11399.171507,-6957.935855,-75537.016103
10454.525393,7994.224174,-5477.523971,-77528.864398
10454.527962,6365.771101,-8290.306550,-79367.493593
10454.530531,5921.647536,-4737.318029,-77988.521696
10454.533100,4441.235652,-5477.523971,-77222.426198
10454.535669,-10066.800811,2516.700203,-76762.768900
10454.538237,-5181.441594,7698.141797,-78907.836294
10454.540806,-13767.830521,11547.212695,-76456.330700
10454.543375,-4441.235652,13915.871710,-78601.398095
10454.545944,-592.164754,5033.400406,-77682.083497
10454.548513,-2220.617826,1480.411884,-77069.207099
10454.551082,-3108.864956,-1184.329507,-79061.055394
10454.553651,-2664.741391,-8290.306550,-78141.740796
10454.556219,-3256.906145,2516.700203,-75383.797003
10454.558788,-740.205942,888.247130,-77835.302597
10454.561357,-1036.288319,5921.647536,-77375.645298
10454.563927,2072.576638,4737.318029,-76609.549800
10454.566497,-12731.542202,8290.306550,-76456.330700
10454.569067,-5329.482782,7698.141797,-79214.274493
10454.571637,-12731.542202,3108.864956,-79367.493593
10454.574207,-9326.594869,3108.864956,-78601.398095
10454.576777,-4885.359217,1776.494261,-78448.178995
10454.579347,1184.329507,1776.494261,-77069.207099
10454.581917,9030.512492,-4737.318029,-76303.111601
10454.584487,7105.977043,-8586.388927,-78448.178995
10454.587056,11547.212695,-13619.789333,-77375.645298
10454.589626,444.123565,-13027.624579,-77375.645298
10454.592196,0.000000,-11843.295072,-78907.836294
10454.594766,3404.947333,-8882.471304,-77069.207099
10454.597336,1184.329507,740.205942,-76456.330700
10454.599906,7402.059420,2664.741391,-78141.740796
10454.602476,3701.029710,1924.535449,-76915.987999
10454.605046,2220.617826,-6513.812290,-77835.302597
10454.607616,-2220.617826,-7254.018232,-79214.274493
10454.610186,4145.153275,-2664.741391,-77682.083497
10454.612756,6365.771101,-8734.430116,-77528.864398
10454.615326,2960.823768,-5477.523971,-77528.864398
10454.617896,16432.571912,-10510.924376,-77682.083497
10454.620466,9770.718434,-4885.359217,-76609.549800
10454.623036,0.000000,-3701.029710,-78907.836294
10454.625606,444.123565,-3108.864956,-79367.493593
10454.628176,5625.565159,-5773.606348,-78141.740796
10454.630746,-14359.995275,4145.153275,-76609.549800
10454.633315,-9178.553681,10658.965565,-77528.864398
10454.635885,-10658.965565,10807.006753,-79367.493593
10454.638455,-4145.153275,11843.295072,-77069.207099
10454.641025,888.247130,8142.265362,-79214.274493
10454.643595,2664.741391,-2664.741391,-76149.892501
10454.646165,-2812.782580,-5329.482782,-78601.398095
10454.648735,-12287.418637,-1332.370696,-78907.836294
10454.651305,2664.741391,-2368.659014,-79061.055394
10454.653875,5329.482782,3256.906145,-78448.178995
10454.656445,-6513.812290,2368.659014,-77375.645298
10454.659015,888.247130,8438.347739,-75383.797003
10454.661585,-9030.512492,7402.059420,-78294.959896
10454.664155,-15248.242405,8438.347739,-77988.521696
10454.666693,-9622.677246,1036.288319,-77835.302597
10454.669231,0.000000,-740.205942,-77222.426198
10454.671769,-3849.070898,7254.018232,-75690.235202
10454.674308,4293.194464,-740.205942,-77528.864398
10454.676846,15396.283594,-9622.677246,-78294.959896
10454.679384,4737.318029,-12287.418637,-76915.987999
10454.681922,3701.029710,-7994.224174,-77682.083497
10454.684460,5033.400406,-17024.736666,-79061.055394
10454.686998,-4737.318029,-9918.759623,-77069.207099
10454.689537,1184.329507,2368.659014,-77375.645298
10454.692075,3849.070898,888.247130,-79520.712692
10454.694613,3849.070898,-1184.329507,-77375.645298
10454.697151,-1480.411884,1628.453072,-76915.987999
10454.699689,-1924.535449,-6217.729913,-77835.302597
10454.702228,5329.482782,-7402.059420,-80899.684589
10454.704766,-4589.276840,-6069.688724,-77988.521696
10454.707304,12435.459826,-7698.141797,-77528.864398
10454.709842,14359.995275,-9622.677246,-76609.549800
10454.712380,4885.359217,-4885.359217,-77069.207099
10454.714919,2516.700203,-4293.194464,-77682.083497
10454.717457,5477.523971,-7402.059420,-79520.712692
10454.719995,592.164754,-5625.565159,-77682.083497
10454.722533,-6661.853478,7254.018232,-76303.111601
10454.725071,-8438.347739,5033.400406,-78754.617194
10454.727609,-15544.324782,14804.118840,-76762.768900
10454.730148,740.205942,11251.130318,-79061.055394
10454.732686,0.000000,7402.059420,-76149.892501
10454.735224,-2220.617826,-1036.288319,-76456.330700
10454.737762,-10066.800811,-4145.153275,-79214.274493
10454.740300,-3849.070898,-5033.400406,-78294.959896
10454.742839,-2812.782580,1184.329507,-77528.864398
10454.745377,-3997.112087,3849.070898,-78448.178995
10454.747915,6957.935855,5921.647536,-78448.178995
10454.750453,-2220.617826,2960.823768,-77682.083497
