#time,accel_x,accel_y,accel_z
10578.000256,-4293.194464,2516.700203,-78601.398095
10578.002834,3552.988522,-2664.741391,-78754.617194
10578.005412,1776.494261,-740.205942,-77528.864398
10578.007990,-3404.947333,-740.205942,-78294.959896
10578.010568,1628.453072,-2368.659014,-78907.836294
10578.013146,2812.782580,3849.070898,-76609.549800
10578.015724,-5477.523971,-3404.947333,-77682.083497
10578.018302,-592.164754,1924.535449,-77835.302597
10578.020880,2664.741391,-148.041188,-78141.740796
10578.023458,-1628.453072,1776.494261,-78294.959896
10578.026036,3256.906145,5773.606348,-79520.712692
10578.028614,9770.718434,2664.741391,-77375.645298
10578.031192,7105.977043,1332.370696,-77528.864398
10578.033770,19689.478057,3552.988522,-78448.178995
10578.036348,10658.965565,-1332.370696,-77988.521696
10578.038926,-12435.459826,-296.082377,-77835.302597
10578.041504,-16136.489536,-3552.988522,-77835.302597
10578.044082,-7402.059420,-5773.606348,-77835.302597
10578.046661,-5773.606348,-3849.070898,-75690.235202
10578.049239,6661.853478,-3256.906145,-79980.369991
10578.051817,10807.006753,-6957.935855,-79673.931792
10578.054395,-3849.070898,-3404.947333,-75230.577904
10578.056973,-14359.995275,-1628.453072,-77222.426198
10578.059551,-4589.276840,148.041188,-79061.055394
10578.062129,740.205942,-1184.329507,-77988.521696
10578.064707,-1184.329507,1184.329507,-77069.207099
10578.067285,8734.430116,-3997.112087,-78294.959896
10578.069863,-2664.741391,-3997.112087,-77069.207099
10578.072441,-11843.295072,-3552.988522,-77835.302597
10578.075019,-888.247130,-4885.359217,-79827.150892
10578.077597,2960.823768,-740.205942,-77835.302597
10578.080175,-3256.906145,-5921.647536,-76609.549800
10578.082753,1332.370696,2368.659014,-77528.864398
10578.085331,-1036.288319,-5033.400406,-78448.178995
10578.087909,-6809.894666,-2072.576638,-75843.454302
10578.090487,296.082377,-1628.453072,-79980.369991
10578.093065,2516.700203,-6365.771101,-78141.740796
10578.095643,-6069.688724,-8142.265362,-77835.302597
10578.098221,-7105.977043,-2072.576638,-76762.768900
10578.100799,-6069.688724,-5477.523971,-75843.454302
10578.103378,-3849.070898,-1628.453072,-78448.178995
10578.105956,-3849.070898,888.247130,-77528.864398
10578.108534,7550.100608,-3256.906145,-78141.740796
10578.111112,296.082377,-1628.453072,-76915.987999
10578.113690,-7994.224174,-2368.659014,-78601.398095
10578.116268,-592.164754,-3849.070898,-79367.493593
10578.118846,-9326.594869,-6661.853478,-76762.768900
10578.121424,-8142.265362,-5477.523971,-78907.836294
10578.124002,3404.947333,-1924.535449,-77988.521696
10578.126580,9622.677246,1036.288319,-76149.892501
10578.129158,-148.041188,1628.453072,-78754.617194
10578.131736,7105.977043,6365.771101,-79214.274493
10578.134314,-592.164754,296.082377,-78294.959896
10578.136892,-8142.265362,3256.906145,-74158.044206
10578.139470,-2664.741391,-5329.482782,-79673.931792
10578.142048,9030.512492,-148.041188,-77375.645298
10578.144626,592.164754,-2516.700203,-78294.959896
10578.147204,2072.576638,-444.123565,-78754.617194
10578.149782,3701.029710,296.082377,-78141.740796
10578.152361,-3849.070898,4441.235652,-75843.454302
10578.154939,-148.041188,6217.729913,-77988.521696
10578.157517,8142.265362,2812.782580,-78754.617194
10578.160095,4145.153275,-740.205942,-76303.111601
10578.162673,2516.700203,1628.453072,-77528.864398
10578.165251,3552.988522,-4293.194464,-78754.617194
10578.167829,-4885.359217,-1036.288319,-76609.549800
10578.170407,-5477.523971,2664.741391,-78141.740796
10578.172985,5033.400406,2812.782580,-79214.274493
10578.175563,6365.771101,1924.535449,-77375.645298
10578.178141,-3997.112087,1628.453072,-75383.797003
10578.180719,444.123565,1480.411884,-79520.712692
10578.183297,2664.741391,-1480.411884,-79214.274493
10578.185875,-6809.894666,-592.164754,-77835.302597
10578.188453,7105.977043,-888.247130,-78294.959896
10578.191031,2664.741391,-1776.494261,-78754.617194
10578.193609,592.164754,2072.576638,-74311.263306
10578.196186,2368.659014,7105.977043,-78907.836294
10578.198764,10362.883188,1480.411884,-79520.712692
10578.201342,1628.453072,444.123565,-79214.274493
10578.203920,6217.729913,-1332.370696,-79367.493593
10578.206498,3997.112087,-1776.494261,-76149.892501
10578.209076,-3997.112087,-888.247130,-75996.673402
10578.211653,-148.041188,1924.535449,-78754.617194
10578.214231,6217.729913,1924.535449,-79367.493593
10578.216809,3404.947333,3997.112087,-76762.768900
10578.219387,1332.370696,3849.070898,-78294.959896
10578.221965,6217.729913,-592.164754,-78448.178995
10578.224543,-2516.700203,-1036.288319,-77069.207099
10578.227121,-2516.700203,1628.453072,-77528.864398
10578.229698,-296.082377,-2664.741391,-78448.178995
10578.232276,-4441.235652,-4589.276840,-76762.768900
10578.234854,-1924.535449,-5773.606348,-78754.617194
10578.237432,4145.153275,-2960.823768,-78907.836294
10578.240010,-4293.194464,-4737.318029,-77069.207099
10578.242588,-7698.141797,-2072.576638,-77375.645298
10578.245165,-4145.153275,592.164754,-78294.959896
10578.247743,-2516.700203,-1628.453072,-76609.549800
10578.250321,-5329.482782,-2220.617826,-76915.987999
10578.252899,2960.823768,-5033.400406,-78294.959896
10578.255477,2516.700203,-6513.812290,-77069.207099
10578.258055,-6957.935855,-5033.400406,-75383.797003
10578.260632,-4293.194464,-1776.494261,-79214.274493
10578.263210,888.247130,-3849.070898,-79214.274493
10578.265788,-1924.535449,592.164754,-75996.673402
10578.268366,592.164754,-2516.700203,-78141.740796
10578.270944,4737.318029,-4737.318029,-77988.521696
10578.273522,-6365.771101,-2812.782580,-77835.302597
10578.276100,-2516.700203,-740.205942,-77069.207099
10578.278677,3256.906145,-6661.853478,-77528.864398
10578.281255,888.247130,1036.288319,-75843.454302
10578.283833,-5477.523971,-2220.617826,-75996.673402
10578.286411,888.247130,-2664.741391,-77682.083497
10578.288988,0.000000,-2220.617826,-77375.645298
10578.291564,-7550.100608,-3701.029710,-76149.892501
10578.294141,-2072.576638,-6217.729913,-78141.740796
10578.296718,-4885.359217,-5477.523971,-78601.398095
10578.299295,-9770.718434,-3552.988522,-79061.055394
10578.301871,444.123565,-1776.494261,-79520.712692
10578.304448,-2960.823768,-6217.729913,-78601.398095
10578.307025,-2516.700203,-444.123565,-76303.111601
10578.309602,-444.123565,296.082377,-78448.178995
10578.312179,-296.082377,-5477.523971,-77682.083497
10578.314755,-14211.954086,-5773.606348,-77375.645298
10578.317332,-6365.771101,-4737.318029,-78294.959896
10578.319909,4145.153275,-9030.512492,-77375.645298
10578.322486,592.164754,-1036.288319,-76303.111601
10578.325062,7550.100608,444.123565,-79827.150892
10578.327639,12139.377449,2664.741391,-77222.426198
10578.330216,-592.164754,5773.606348,-76762.768900
10578.332793,-8734.430116,2220.617826,-76915.987999
10578.335369,888.247130,-296.082377,-78601.398095
10578.337946,5329.482782,1628.453072,-76303.111601
10578.340523,3997.112087,2072.576638,-79214.274493
10578.343100,9326.594869,-2368.659014,-78907.836294
10578.345676,1036.288319,0.000000,-76149.892501
10578.348253,-5477.523971,3404.947333,-76456.330700
10578.350830,1332.370696,5033.400406,-78141.740796
10578.353407,4885.359217,3404.947333,-78907.836294
10578.355983,2960.823768,2664.741391,-77835.302597
10578.358560,6217.729913,296.082377,-79061.055394
10578.361137,1776.494261,-2220.617826,-76456.330700
10578.363714,-3404.947333,-296.082377,-76609.549800
10578.366290,-148.041188,1628.453072,-79980.369991
10578.368867,3552.988522,-1480.411884,-78754.617194
10578.371444,1480.411884,592.164754,-76915.987999
10578.374021,-740.205942,444.123565,-77375.645298
10578.376598,3701.029710,-4293.194464,-77835.302597
10578.379174,-888.247130,740.205942,-77069.207099
10578.381751,-4885.359217,0.000000,-78754.617194
10578.384328,10510.924376,-592.164754,-78907.836294
10578.386905,-1036.288319,2220.617826,-77222.426198
10578.389481,2072.576638,2960.823768,-78141.740796
10578.392057,6957.935855,1776.494261,-78294.959896
10578.394633,6069.688724,3997.112087,-77682.083497
10578.397209,3701.029710,1480.411884,-77988.521696
10578.399785,5773.606348,2516.700203,-78448.178995
10578.402361,1628.453072,-1480.411884,-75383.797003
10578.404937,-4737.318029,148.041188,-77069.207099
10578.407513,1776.494261,1184.329507,-78601.398095
10578.410089,9622.677246,1036.288319,-78294.959896
10578.412664,-148.041188,2516.700203,-77682.083497
10578.415240,0.000000,3701.029710,-78294.959896
10578.417816,5477.523971,-2516.700203,-77988.521696
10578.420392,-4737.318029,-1480.411884,-77528.864398
10578.422968,-10362.883188,-4737.318029,-78294.959896
10578.425544,4293.194464,-4589.276840,-78754.617194
10578.428120,4145.153275,-5033.400406,-77988.521696
10578.430696,-3701.029710,-2960.823768,-77988.521696
10578.433272,-1776.494261,-4737.318029,-78448.178995
10578.435848,-3849.070898,-3849.070898,-77682.083497
10578.438423,-8586.388927,1480.411884,-76915.987999
10578.440999,1184.329507,-592.164754,-78294.959896
10578.443575,5181.441594,-5477.523971,-77835.302597
10578.446151,-6069.688724,-7254.018232,-76762.768900
10578.448727,740.205942,-1924.535449,-76609.549800
10578.451303,-4145.153275,-8290.306550,-76915.987999
10578.453879,-7254.018232,-4441.235652,-76456.330700
10578.456455,444.123565,-444.123565,-79520.712692
10578.459031,296.082377,444.123565,-77222.426198
10578.461607,-4441.235652,888.247130,-74924.139704
10578.464183,-888.247130,-3997.112087,-77988.521696
10578.466758,1036.288319,-2220.617826,-78294.959896
10578.469334,2368.659014,-4145.153275,-77682.083497
10578.471910,-1628.453072,2664.741391,-78601.398095
10578.474486,4441.235652,-3108.864956,-79980.369991
10578.477062,-1628.453072,-3701.029710,-77069.207099
10578.479638,-6661.853478,-4293.194464,-77682.083497
10578.482214,3849.070898,-4145.153275,-78294.959896
10578.484790,-6809.894666,-4441.235652,-78601.398095
10578.487366,-8734.430116,-4885.359217,-77222.426198
10578.489942,-740.205942,-3997.112087,-78294.959896
10578.492517,-1480.411884,-5181.441594,-75996.673402
10578.495093,-3997.112087,-1480.411884,-77222.426198
10578.497668,2960.823768,-1924.535449,-79673.931792
10578.500244,-740.205942,-2220.617826,-76762.768900
10578.502819,-11103.089130,-2072.576638,-76149.892501
10578.505394,-5033.400406,-5773.606348,-78294.959896
10578.507970,-2368.659014,-5181.441594,-77069.207099
10578.510545,-888.247130,-444.123565,-75996.673402
10578.513121,5033.400406,-592.164754,-78754.617194
10578.515696,11695.253884,1332.370696,-78448.178995
10578.518271,-2664.741391,4293.194464,-76456.330700
10578.520847,-5033.400406,3108.864956,-78448.178995
10578.523422,-740.205942,-888.247130,-77682.083497
10578.525998,-1036.288319,2516.700203,-76762.768900
10578.528573,6957.935855,2072.576638,-79827.150892
10578.531148,9770.718434,-4145.153275,-78141.740796
10578.533724,1480.411884,-148.041188,-76609.549800
10578.536299,-6957.935855,1332.370696,-77682.083497
10578.538874,2812.782580,2516.700203,-79827.150892
10578.541450,3256.906145,3552.988522,-78141.740796
10578.544025,2960.823768,2516.700203,-78601.398095
10578.546601,8882.471304,2664.741391,-78294.959896
10578.549176,148.041188,-2072.576638,-75843.454302
10578.551751,-4589.276840,-1480.411884,-75690.235202
10578.554327,6069.688724,-2220.617826,-79367.493593
10578.556902,4293.194464,-5477.523971,-78294.959896
10578.559478,1628.453072,3256.906145,-74924.139704
10578.562053,1332.370696,444.123565,-79520.712692
10578.564628,2516.700203,-444.123565,-76456.330700
10578.567204,-1628.453072,-1480.411884,-75230.577904
10578.569779,0.000000,3552.988522,-77988.521696
10578.572355,4885.359217,-148.041188,-78601.398095
10578.574930,-3256.906145,2812.782580,-77835.302597
10578.577505,5921.647536,4589.276840,-78754.617194
10578.580081,9178.553681,1628.453072,-76609.549800
10578.582656,5921.647536,3552.988522,-76456.330700
10578.585231,592.164754,1480.411884,-78907.836294
10578.587807,4589.276840,-296.082377,-79673.931792
10578.590382,-2368.659014,0.000000,-77222.426198
10578.592958,-3256.906145,296.082377,-77835.302597
10578.595533,10066.800811,-1184.329507,-79520.712692
10578.598107,888.247130,1628.453072,-77835.302597
10578.600681,-3256.906145,1036.288319,-76149.892501
10578.603255,3701.029710,2368.659014,-78448.178995
10578.605829,-2664.741391,740.205942,-76303.111601
10578.608404,-11695.253884,-4145.153275,-77069.207099
10578.610978,1184.329507,-6365.771101,-77682.083497
10578.613552,6809.894666,-6661.853478,-77375.645298
10578.616126,-3997.112087,-2812.782580,-75537.016103
10578.618700,-1776.494261,-5773.606348,-79061.055394
10578.621274,-6217.729913,-2072.576638,-76915.987999
10578.623848,-8734.430116,1628.453072,-75996.673402
10578.626422,-2812.782580,148.041188,-78601.398095
10578.628996,3997.112087,-2368.659014,-78294.959896
10578.631570,-740.205942,-6069.688724,-76456.330700
10578.634144,-3849.070898,-3404.947333,-79061.055394
10578.636719,-2220.617826,-9030.512492,-79061.055394
10578.639293,-8734.430116,-4145.153275,-77222.426198
10578.641867,-3404.947333,-592.164754,-79520.712692
10578.644441,3997.112087,-5033.400406,-79214.274493
10578.647015,-1924.535449,-148.041188,-76762.768900
10578.649589,-4293.194464,-296.082377,-76456.330700
10578.652163,-444.123565,-2220.617826,-80440.027290
10578.654737,1036.288319,-1776.494261,-78907.836294
10578.657311,-9326.594869,-1776.494261,-78448.178995
10578.659885,4885.359217,-444.123565,-77835.302597
10578.662459,1036.288319,-7254.018232,-78294.959896
10578.665034,-5773.606348,-2664.741391,-76762.768900
10578.667608,-1332.370696,-7846.182985,-78601.398095
10578.670182,-2664.741391,-5181.441594,-78601.398095
10578.672756,-9474.636058,-3701.029710,-76762.768900
10578.675330,-2368.659014,-3404.947333,-77835.302597
10578.677904,740.205942,-4737.318029,-76303.111601
10578.680478,-3256.906145,-1332.370696,-76149.892501
10578.683052,296.082377,-740.205942,-80133.589091
10578.685626,-5773.606348,-5477.523971,-77375.645298
10578.688200,-11843.295072,-2664.741391,-74770.920605
10578.690774,-444.123565,-3701.029710,-78141.740796
10578.693349,10510.924376,-1924.535449,-79673.931792
10578.695923,4441.235652,-2220.617826,-77835.302597
10578.698497,5625.565159,4589.276840,-79214.274493
10578.701070,5477.523971,3256.906145,-79367.493593
10578.703643,-6217.729913,2960.823768,-76915.987999
10578.706216,-7846.182985,1480.411884,-78141.740796
10578.708789,8142.265362,1924.535449,-78754.617194
10578.711362,6809.894666,0.000000,-78294.959896
10578.713936,2960.823768,1036.288319,-79061.055394
10578.716509,5033.400406,-2072.576638,-78448.178995
10578.719082,-1184.329507,0.000000,-77988.521696
10578.721655,-5329.482782,3997.112087,-77835.302597
10578.724228,5625.565159,2812.782580,-78907.836294
10578.726801,6809.894666,3256.906145,-78448.178995
10578.729374,2220.617826,296.082377,-77222.426198
10578.731948,888.247130,1924.535449,-77988.521696
10578.734521,2516.700203,-3552.988522,-75077.358804
10578.737094,-6217.729913,444.123565,-77682.083497
10578.739667,5477.523971,3404.947333,-77375.645298
10578.742240,2960.823768,-2960.823768,-77988.521696
10578.744813,1332.370696,444.123565,-76609.549800
10578.747386,-3256.906145,-444.123565,-79673.931792
10578.749960,6217.729913,2220.617826,-77835.302597
10578.752533,-3552.988522,-148.041188,-77069.207099
10578.755106,4145.153275,5477.523971,-77682.083497
10578.757679,6513.812290,-1332.370696,-80286.808190
10578.760252,4293.194464,3849.070898,-76762.768900
10578.762825,1628.453072,4737.318029,-76915.987999
10578.765399,7254.018232,3701.029710,-79367.493593
10578.767972,-1184.329507,1036.288319,-79061.055394
10578.770545,-4737.318029,888.247130,-78141.740796
10578.773118,5329.482782,-2664.741391,-79520.712692
10578.775691,3552.988522,2368.659014,-77375.645298
10578.778264,-1332.370696,1332.370696,-79061.055394
10578.780837,6365.771101,888.247130,-78754.617194
10578.783411,5033.400406,592.164754,-77682.083497
10578.785984,-10362.883188,1776.494261,-76303.111601
10578.788557,-5329.482782,-4145.153275,-79367.493593
10578.791130,3849.070898,-7254.018232,-75996.673402
10578.793703,-1776.494261,-5773.606348,-76456.330700
10578.796276,0.000000,-3701.029710,-78294.959896
10578.798849,-3997.112087,-9030.512492,-77222.426198
10578.801423,-9918.759623,-444.123565,-75537.016103
10578.803995,-4293.194464,1332.370696,-77069.207099
10578.806568,4885.359217,-740.205942,-80593.246390
10578.809140,-1776.494261,-2812.782580,-78601.398095
10578.811713,-296.082377,-2960.823768,-77835.302597
10578.814286,-296.082377,-6809.894666,-78294.959896
10578.816858,-5921.647536,-5625.565159,-76456.330700
10578.819431,-7994.224174,-4145.153275,-79980.369991
10578.822003,3108.864956,-3701.029710,-80286.808190
10578.824576,0.000000,-888.247130,-77528.864398
10578.827149,-2516.700203,-592.164754,-76609.549800
10578.829721,-6069.688724,-2220.617826,-79061.055394
10578.832294,3701.029710,-2368.659014,-79367.493593
10578.834866,-1036.288319,-1332.370696,-76762.768900
10578.837439,-4589.276840,-1184.329507,-78448.178995
10578.840012,4441.235652,-7698.141797,-79673.931792
10578.842584,-6069.688724,-5773.606348,-76762.768900
10578.845157,-3997.112087,-3997.112087,-77835.302597
10578.847729,-3552.988522,-4589.276840,-76915.987999
10578.850302,-9030.512492,-1628.453072,-76303.111601
10578.852875,-5181.441594,-4441.235652,-77375.645298
10578.855447,3701.029710,-3108.864956,-77835.302597
10578.858020,148.041188,-1332.370696,-75996.673402
10578.860593,-10214.842000,-740.205942,-76915.987999
10578.863165,-5625.565159,-3108.864956,-78294.959896
10578.865738,-4589.276840,-2960.823768,-76303.111601
10578.868310,-2368.659014,-1184.329507,-77682.083497
10578.870883,7994.224174,-3108.864956,-79980.369991
10578.873456,11103.089130,-1184.329507,-77835.302597
10578.876028,-296.082377,1480.411884,-76149.892501
10578.878601,-2368.659014,6957.935855,-78141.740796
10578.881173,-3256.906145,-1628.453072,-78141.740796
10578.883746,-3997.112087,2664.741391,-77682.083497
10578.886319,3849.070898,2072.576638,-79214.274493
10578.888891,14211.954086,-2960.823768,-78448.178995
10578.891464,-1776.494261,-2368.659014,-77222.426198
10578.894036,1480.411884,-296.082377,-77682.083497
10578.896609,-148.041188,148.041188,-78448.178995
10578.899182,592.164754,4589.276840,-77988.521696
10578.901754,4589.276840,3701.029710,-77682.083497
10578.904327,11695.253884,2664.741391,-78448.178995
10578.906902,5477.523971,-1776.494261,-76303.111601
10578.909474,-4293.194464,2812.782580,-77835.302597
10578.912045,1628.453072,-2516.700203,-79214.274493
10578.914617,2072.576638,740.205942,-76303.111601
10578.917188,-2072.576638,148.041188,-76303.111601
10578.919760,7105.977043,296.082377,-79520.712692
10578.922331,4145.153275,-1480.411884,-76456.330700
10578.924903,-4589.276840,1628.453072,-77375.645298
10578.927474,2812.782580,2960.823768,-78601.398095
10578.930046,5181.441594,2664.741391,-75996.673402
10578.932617,1184.329507,3849.070898,-75690.235202
10578.935189,9030.512492,6365.771101,-78907.836294
10578.937760,7994.224174,740.205942,-79061.055394
10578.940332,-2072.576638,2516.700203,-78448.178995
10578.942904,1184.329507,2812.782580,-77682.083497
10578.945475,4589.276840,-3849.070898,-78448.178995
10578.948047,3552.988522,0.000000,-76762.768900
10578.950618,-1184.329507,888.247130,-78754.617194
10578.953190,6957.935855,-888.247130,-79214.274493
10578.955761,-296.082377,1184.329507,-77375.645298
10578.958333,-2072.576638,3108.864956,-78294.959896
10578.960904,-6217.729913,-3552.988522,-79367.493593
10578.963476,-3849.070898,-5329.482782,-76762.768900
10578.966047,740.205942,-6217.729913,-75996.673402
10578.968619,2664.741391,-4885.359217,-77375.645298
10578.971190,-4441.235652,-6661.853478,-77222.426198
10578.973762,-10955.047942,-3404.947333,-78294.959896
10578.976333,-3701.029710,-1480.411884,-78448.178995
10578.978905,-3404.947333,2072.576638,-76609.549800
10578.981476,-3701.029710,-1184.329507,-77988.521696
10578.984048,4589.276840,-2960.823768,-78601.398095
10578.986620,740.205942,-6069.688724,-77222.426198
10578.989191,-8438.347739,-5625.565159,-76456.330700
10578.991763,-6809.894666,-3997.112087,-79214.274493
10578.994334,2516.700203,-3404.947333,-79367.493593
10578.996906,-3849.070898,-2368.659014,-77988.521696
10578.999477,444.123565,3849.070898,-77375.645298
10579.002049,3849.070898,-4737.318029,-79520.712692
10579.004620,-7402.059420,-5033.400406,-77682.083497
10579.007192,1332.370696,2220.617826,-76762.768900
10579.009763,2516.700203,-6957.935855,-78141.740796
10579.012334,0.000000,-2812.782580,-75690.235202
10579.014904,-10658.965565,-7402.059420,-79673.931792
10579.017475,2516.700203,-3108.864956,-77682.083497
10579.020046,-7105.977043,-5477.523971,-77222.426198
10579.022617,-9030.512492,0.000000,-76609.549800
10579.025188,3108.864956,-6809.894666,-79827.150892
10579.027759,1184.329507,-592.164754,-76456.330700
10579.030330,-3849.070898,-2664.741391,-76609.549800
10579.032901,-1184.329507,-3256.906145,-78294.959896
10579.035472,-6957.935855,-4885.359217,-76762.768900
10579.038043,-4589.276840,-3256.906145,-75843.454302
10579.040613,4885.359217,148.041188,-78141.740796
10579.043184,10066.800811,-4145.153275,-77835.302597
10579.045755,5033.400406,1480.411884,-76303.111601
10579.048326,2664.741391,5181.441594,-77069.207099
10579.050897,-4145.153275,2516.700203,-77222.426198
10579.053468,-10658.965565,1776.494261,-77069.207099
10579.056039,4441.235652,4589.276840,-79214.274493
10579.058610,12435.459826,-592.164754,-79367.493593
10579.061181,3997.112087,148.041188,-76915.987999
10579.063752,-740.205942,-2960.823768,-77682.083497
10579.066322,2960.823768,-888.247130,-79061.055394
10579.068893,-4885.359217,4885.359217,-76609.549800
10579.071464,-2220.617826,3552.988522,-79061.055394
10579.074035,14359.995275,1924.535449,-79673.931792
10579.076606,5625.565159,-444.123565,-78141.740796
10579.079177,-3997.112087,740.205942,-74158.044206
10579.081748,1776.494261,-888.247130,-78141.740796
10579.084319,592.164754,-2072.576638,-78294.959896
10579.086890,148.041188,148.041188,-78141.740796
10579.089461,2220.617826,592.164754,-76762.768900
10579.092031,3849.070898,2516.700203,-74158.044206
10579.094602,-4737.318029,-2072.576638,-77682.083497
10579.097173,3552.988522,5181.441594,-78601.398095
10579.099744,3552.988522,2220.617826,-77375.645298
10579.102315,3256.906145,5033.400406,-77222.426198
10579.104886,7846.182985,3256.906145,-78601.398095
10579.107457,8290.306550,296.082377,-77682.083497
10579.110028,-2812.782580,1036.288319,-77222.426198
10579.112569,-1628.453072,2960.823768,-78448.178995
10579.115110,3404.947333,-3108.864956,-79980.369991
10579.117651,0.000000,888.247130,-76762.768900
10579.120192,4293.194464,1628.453072,-79061.055394
10579.122733,2960.823768,-1628.453072,-77069.207099
10579.125274,3108.864956,2960.823768,-77835.302597
10579.127815,-11843.295072,1036.288319,-77835.302597
10579.130356,-1480.411884,-3256.906145,-77988.521696
10579.132898,296.082377,-8142.265362,-77222.426198
10579.135439,1924.535449,-3849.070898,-79061.055394
10579.137980,2072.576638,-7698.141797,-78754.617194
10579.140521,-4441.235652,-6069.688724,-76456.330700
10579.143062,-11399.171507,-3256.906145,-76609.549800
10579.145603,-1924.535449,-740.205942,-78601.398095
10579.148144,-148.041188,-2368.659014,-77988.521696
10579.150685,-1332.370696,444.123565,-75537.016103
10579.153226,2368.659014,-5181.441594,-78294.959896
10579.155767,1628.453072,-6217.729913,-76456.330700
10579.158309,-14211.954086,-6661.853478,-76915.987999
10579.160850,-3256.906145,-3701.029710,-78294.959896
10579.163391,592.164754,-3404.947333,-78448.178995
10579.165932,-3256.906145,-1628.453072,-77222.426198
10579.168473,1924.535449,1480.411884,-78448.178995
10579.171014,3108.864956,-1628.453072,-79367.493593
10579.173555,-3997.112087,-5625.565159,-77988.521696
10579.176096,-1776.494261,-2516.700203,-79061.055394
10579.178637,2812.782580,-5329.482782,-77835.302597
10579.181178,-1924.535449,-4441.235652,-76303.111601
10579.183720,-9326.594869,-6661.853478,-79214.274493
10579.186261,-1184.329507,-7254.018232,-77375.645298
10579.188802,-9622.677246,-3404.947333,-76303.111601
10579.191343,-2812.782580,444.123565,-78141.740796
10579.193884,3552.988522,-3552.988522,-79061.055394
10579.196425,444.123565,-3404.947333,-76609.549800
10579.198966,-12731.542202,-1776.494261,-74617.701505
10579.201507,-6069.688724,-5921.647536,-77375.645298
10579.204048,444.123565,-3108.864956,-76915.987999
10579.206589,-1480.411884,-444.123565,-76609.549800
10579.209131,11399.171507,-1776.494261,-79673.931792
10579.211672,11103.089130,3701.029710,-77375.645298
10579.214218,-5033.400406,5921.647536,-75690.235202
10579.216764,-7698.141797,4145.153275,-77988.521696
10579.219309,1776.494261,-148.041188,-78448.178995
10579.221855,-2220.617826,1628.453072,-78294.959896
10579.224401,9918.759623,1628.453072,-79673.931792
10579.226947,9178.553681,-5773.606348,-77682.083497
10579.229493,-1480.411884,-740.205942,-75230.577904
10579.232039,-1480.411884,1628.453072,-79367.493593
10579.234585,296.082377,1332.370696,-78601.398095
10579.237131,888.247130,3108.864956,-79673.931792
10579.239677,6217.729913,5033.400406,-77988.521696
10579.242223,10214.842000,-2664.741391,-78294.959896
10579.244769,2220.617826,-1776.494261,-76149.892501
10579.247315,-5181.441594,0.000000,-76303.111601
10579.249861,592.164754,1924.535449,-80746.465489
10579.252407,3701.029710,-2220.617826,-78448.178995
10579.254953,-2812.782580,592.164754,-73391.948708
10579.257499,1628.453072,3404.947333,-75996.673402
10579.260045,6809.894666,3108.864956,-78448.178995
10579.262591,2960.823768,3701.029710,-77988.521696
10579.265137,2664.741391,5033.400406,-79520.712692
10579.267683,14359.995275,4145.153275,-79214.274493
10579.270229,4885.359217,740.205942,-76609.549800
10579.272775,-1036.288319,1480.411884,-77069.207099
10579.275321,1332.370696,-148.041188,-77835.302597
10579.277867,-444.123565,1184.329507,-77835.302597
10579.280413,740.205942,2072.576638,-79061.055394
10579.282958,5033.400406,888.247130,-79214.274493
10579.285504,2220.617826,-888.247130,-77069.207099
10579.288050,-2368.659014,1776.494261,-76456.330700
10579.290596,-5773.606348,-1332.370696,-78448.178995
10579.293142,-4441.235652,-4441.235652,-76303.111601
10579.295688,-3997.112087,-7550.100608,-78448.178995
10579.298234,6513.812290,-5033.400406,-78754.617194
10579.300780,-1480.411884,-7846.182985,-76456.330700
10579.303326,-9474.636058,-5329.482782,-75690.235202
10579.305872,-8142.265362,-1628.453072,-78448.178995
10579.308418,148.041188,592.164754,-77375.645298
10579.310964,-5329.482782,-1776.494261,-76915.987999
10579.313510,2664.741391,0.000000,-77682.083497
10579.316060,4737.318029,-10658.965565,-78448.178995
10579.318611,-6809.894666,-4441.235652,-75690.235202
10579.321161,-11695.253884,-2516.700203,-78294.959896
10579.323711,888.247130,-7105.977043,-78294.959896
10579.326262,-1480.411884,740.205942,-78907.836294
10579.328812,-3997.112087,2516.700203,-75230.577904
10579.331362,-148.041188,-1184.329507,-75996.673402
10579.333912,3404.947333,-4589.276840,-78448.178995
10579.336463,-6365.771101,-2220.617826,-79214.274493
10579.339013,6957.935855,-2960.823768,-80133.589091
10579.341563,-1924.535449,-4737.318029,-76762.768900
10579.344114,-6365.771101,-7994.224174,-76609.549800
10579.346664,-4589.276840,-6217.729913,-78294.959896
10579.349214,-2516.700203,-6365.771101,-75843.454302
10579.351765,-6365.771101,-1184.329507,-76456.330700
10579.354315,592.164754,592.164754,-80440.027290
10579.356865,0.000000,-4145.153275,-77682.083497
10579.359416,-12731.542202,-5033.400406,-74311.263306
10579.361966,-5477.523971,-4589.276840,-76609.549800
10579.364516,2072.576638,-4293.194464,-77682.083497
10579.367066,-2812.782580,-2664.741391,-77528.864398
10579.369617,11695.253884,-1776.494261,-78907.836294
10579.372167,11991.336260,1480.411884,-79673.931792
10579.374717,-148.041188,7698.141797,-75383.797003
10579.377268,-11843.295072,2368.659014,-78294.959896
10579.379818,2664.741391,3256.906145,-78601.398095
10579.382368,1924.535449,740.205942,-78294.959896
10579.384919,4589.276840,2368.659014,-79980.369991
10579.387469,10658.965565,-5181.441594,-80286.808190
10579.390019,2812.782580,-888.247130,-75537.016103
10579.392570,-6365.771101,1332.370696,-78141.740796
10579.395120,2368.659014,6661.853478,-79520.712692
10579.397645,4885.359217,1184.329507,-81052.903688
10579.400169,5033.400406,2368.659014,-77069.207099
10579.402694,5477.523971,2664.741391,-78448.178995
10579.405219,-444.123565,-5181.441594,-76149.892501
10579.407743,-2220.617826,-444.123565,-75383.797003
10579.410268,148.041188,-444.123565,-79673.931792
10579.412793,2664.741391,2072.576638,-78907.836294
10579.415318,-2072.576638,-1628.453072,-77988.521696
10579.417842,-3849.070898,3108.864956,-77682.083497
10579.420367,7698.141797,-740.205942,-77682.083497
10579.422892,1332.370696,5329.482782,-76609.549800
10579.425416,9918.759623,5773.606348,-79673.931792
10579.427941,11399.171507,1924.535449,-77682.083497
10579.430466,296.082377,1036.288319,-76915.987999
10579.432990,-2812.782580,888.247130,-77069.207099
10579.435515,3256.906145,-2220.617826,-77528.864398
10579.438040,3404.947333,2368.659014,-78448.178995
10579.440565,444.123565,3256.906145,-77682.083497
10579.443089,3256.906145,-296.082377,-78907.836294
10579.445614,4441.235652,2664.741391,-75843.454302
10579.448139,-13027.624579,740.205942,-77222.426198
10579.450663,-1184.329507,-4737.318029,-79061.055394
10579.453188,-1480.411884,-6661.853478,-77375.645298
10579.455713,-1480.411884,-2664.741391,-78141.740796
10579.458237,2220.617826,-6809.894666,-79520.712692
10579.460762,-592.164754,-7550.100608,-76149.892501
10579.463287,-14508.036463,-4589.276840,-76609.549800
10579.465812,-3701.029710,1776.494261,-77835.302597
10579.468336,-1480.411884,-3552.988522,-78294.959896
10579.470861,888.247130,-1776.494261,-76762.768900
10579.473386,444.123565,-3108.864956,-78448.178995
10579.475910,2220.617826,-8882.471304,-77528.864398
10579.478435,-13767.830521,-7698.141797,-75996.673402
10579.480960,-4589.276840,-3256.906145,-77375.645298
10579.483485,3997.112087,740.205942,-79367.493593
10579.486009,5625.565159,-3404.947333,-77222.426198
10579.488534,-6217.729913,0.000000,-75077.358804
10579.491059,4145.153275,-2516.700203,-77835.302597
10579.493583,-3701.029710,-4293.194464,-79673.931792
10579.496108,-3404.947333,-3108.864956,-77988.521696
10579.498641,-148.041188,-6661.853478,-77222.426198
10579.501174,-4589.276840,-6365.771101,-77375.645298
10579.503707,-12731.542202,-7402.059420,-78754.617194
10579.506240,-1332.370696,-1924.535449,-77682.083497
10579.508773,-3108.864956,-1332.370696,-77988.521696
10579.511307,-2960.823768,1480.411884,-77375.645298
10579.513840,-4589.276840,-2368.659014,-79367.493593
10579.516373,-3701.029710,-6069.688724,-76303.111601
10579.518906,-10214.842000,-4589.276840,-75690.235202
10579.521439,4145.153275,-1924.535449,-77835.302597
10579.523972,7105.977043,-7105.977043,-78294.959896
10579.526505,8438.347739,3849.070898,-75537.016103
10579.529038,1480.411884,4737.318029,-79367.493593
10579.531571,0.000000,3849.070898,-77069.207099
10579.534104,-7846.182985,592.164754,-75843.454302
10579.536637,1924.535449,4885.359217,-77222.426198
10579.539170,10807.006753,888.247130,-78448.178995
10579.541704,6661.853478,-444.123565,-78448.178995
10579.544237,2368.659014,-2516.700203,-77988.521696
10579.546770,4737.318029,444.123565,-76762.768900
10579.549303,-7105.977043,296.082377,-75843.454302
10579.551836,-2368.659014,5773.606348,-78141.740796
10579.554369,8142.265362,3997.112087,-80286.808190
10579.556902,6513.812290,2072.576638,-77222.426198
10579.559435,-4145.153275,-1332.370696,-75843.454302
10579.561968,1628.453072,740.205942,-76609.549800
10579.564501,-296.082377,-4885.359217,-80440.027290
10579.567034,-4589.276840,4589.276840,-78141.740796
10579.569567,5921.647536,-1776.494261,-78601.398095
10579.572100,1776.494261,4589.276840,-77069.207099
10579.574634,-2368.659014,2072.576638,-75843.454302
10579.577167,4885.359217,5181.441594,-78448.178995
10579.579700,12583.501014,1332.370696,-80440.027290
10579.582233,2960.823768,2368.659014,-77528.864398
10579.584766,5329.482782,2664.741391,-78141.740796
10579.587299,888.247130,-5033.400406,-77835.302597
10579.589832,-3849.070898,1036.288319,-75383.797003
10579.592365,2812.782580,1036.288319,-79061.055394
10579.594898,6217.729913,2072.576638,-78907.836294
10579.597431,3108.864956,-888.247130,-78754.617194
10579.599972,296.082377,5773.606348,-77222.426198
10579.602512,-3404.947333,-5625.565159,-78448.178995
10579.605053,-6957.935855,-3552.988522,-75690.235202
10579.607593,-3997.112087,-6217.729913,-77835.302597
10579.610134,9770.718434,-4145.153275,-77988.521696
10579.612674,-4145.153275,-7254.018232,-77682.083497
10579.615215,-7254.018232,-4293.194464,-77682.083497
10579.617756,-6661.853478,0.000000,-77222.426198
10579.620296,-3849.070898,-740.205942,-76149.892501
10579.622837,-7698.141797,296.082377,-77835.302597
10579.625377,3552.988522,-1184.329507,-79367.493593
10579.627918,3256.906145,-6957.935855,-77069.207099
10579.630458,-5625.565159,-4441.235652,-75383.797003
10579.632999,-5773.606348,-3404.947333,-78907.836294
10579.635539,-444.123565,-1628.453072,-80286.808190
10579.638080,-5033.400406,-2664.741391,-77682.083497
10579.640620,-4441.235652,4293.194464,-78141.740796
10579.643161,6661.853478,-9326.594869,-78448.178995
10579.645701,-2072.576638,148.041188,-74617.701505
10579.648242,-6809.894666,-6069.688724,-79520.712692
10579.650783,4145.153275,-4145.153275,-77988.521696
10579.653323,-8290.306550,-8734.430116,-77069.207099
10579.655864,-7698.141797,-4441.235652,-77528.864398
10579.658404,-5181.441594,-8438.347739,-79520.712692
10579.660945,-296.082377,-1628.453072,-75077.358804
10579.663485,-4885.359217,-444.123565,-77835.302597
10579.666026,-7550.100608,-1480.411884,-78754.617194
10579.668566,-888.247130,-6513.812290,-78448.178995
10579.671107,-2812.782580,-3701.029710,-76149.892501
10579.673647,444.123565,-1480.411884,-77682.083497
10579.676188,9918.759623,-6957.935855,-79367.493593
10579.678728,6365.771101,3997.112087,-75996.673402
10579.681269,2960.823768,5773.606348,-79827.150892
10579.683809,-444.123565,1924.535449,-77682.083497
10579.686350,-2960.823768,1776.494261,-76456.330700
10579.688891,-592.164754,3997.112087,-76456.330700
10579.691431,11103.089130,4589.276840,-77528.864398
10579.693972,7254.018232,-1036.288319,-78448.178995
10579.696512,-2072.576638,-444.123565,-78141.740796
10579.699053,2960.823768,888.247130,-77835.302597
10579.701599,-592.164754,2812.782580,-76456.330700
10579.704145,-2960.823768,5033.400406,-78448.178995
10579.706691,8438.347739,3404.947333,-80746.465489
10579.709237,8142.265362,-740.205942,-77835.302597
10579.711783,-2664.741391,740.205942,-74004.825107
10579.714330,-3404.947333,-888.247130,-79367.493593
10579.716876,3108.864956,-2072.576638,-77835.302597
10579.719422,-3256.906145,-1480.411884,-77682.083497
10579.721968,2664.741391,3997.112087,-77528.864398
10579.724514,3701.029710,2664.741391,-76609.549800
10579.727060,-444.123565,3256.906145,-75996.673402
10579.729606,6513.812290,6217.729913,-79061.055394
10579.732152,13027.624579,1480.411884,-79214.274493
10579.734699,4885.359217,2368.659014,-77069.207099
10579.737245,-3701.029710,-592.164754,-77528.864398
10579.739791,6661.853478,-1036.288319,-78448.178995
10579.742337,-592.164754,296.082377,-77528.864398
10579.744883,-444.123565,2368.659014,-77988.521696
10579.747429,6809.894666,-1628.453072,-79980.369991
10579.749975,3849.070898,5477.523971,-75996.673402
10579.752522,-11399.171507,-2368.659014,-79061.055394
10579.755068,-3256.906145,-3404.947333,-78141.740796
10579.757614,-1036.288319,-7402.059420,-76303.111601
10579.760160,-1480.411884,-4885.359217,-77069.207099
10579.762706,-2664.741391,-6957.935855,-79367.493593
10579.765252,-1480.411884,-7846.182985,-77988.521696
10579.767798,-11843.295072,-2812.782580,-76303.111601
10579.770345,-2664.741391,2072.576638,-77375.645298
10579.772891,-4145.153275,-2368.659014,-78141.740796
10579.775437,-1480.411884,-1628.453072,-77988.521696
10579.777983,-2960.823768,-2960.823768,-79061.055394
10579.780529,3849.070898,-7994.224174,-77375.645298
10579.783075,-6661.853478,-8438.347739,-76762.768900
10579.785621,-5181.441594,-592.164754,-77988.521696
10579.788167,4145.153275,-1036.288319,-78907.836294
10579.790714,1036.288319,-1776.494261,-76456.330700
10579.793260,-3256.906145,-2072.576638,-77528.864398
10579.795806,5033.400406,-3108.864956,-77222.426198
10579.798352,-4293.194464,-2664.741391,-76456.330700
10579.800898,-5329.482782,-3552.988522,-76456.330700
10579.803449,-3108.864956,-8586.388927,-80133.589091
10579.806000,-6217.729913,-5033.400406,-76303.111601
10579.808551,-8290.306550,-4293.194464,-77222.426198
10579.811102,-592.164754,-1036.288319,-77682.083497
10579.813653,-4737.318029,-296.082377,-76303.111601
10579.816204,-8734.430116,-1776.494261,-77222.426198
10579.818755,-888.247130,-2368.659014,-78601.398095
10579.821306,1924.535449,-3108.864956,-77528.864398
10579.823857,-4737.318029,-6513.812290,-77222.426198
10579.826408,9326.594869,-444.123565,-79827.150892
10579.828959,8586.388927,1924.535449,-78601.398095
10579.831510,-2368.659014,4737.318029,-75843.454302
10579.834060,-5033.400406,3256.906145,-79061.055394
10579.836611,2664.741391,-592.164754,-78294.959896
10579.839162,-2516.700203,3404.947333,-76456.330700
10579.841713,9178.553681,3701.029710,-78294.959896
10579.844264,9178.553681,-2812.782580,-79980.369991
10579.846815,3108.864956,-1332.370696,-78141.740796
10579.849366,-6513.812290,3256.906145,-77069.207099
10579.851917,5181.441594,1776.494261,-77682.083497
10579.854468,2220.617826,2516.700203,-77222.426198
10579.857019,3404.947333,5329.482782,-77988.521696
10579.859570,5329.482782,296.082377,-78448.178995
10579.862121,1480.411884,-3256.906145,-76609.549800
10579.864672,-6365.771101,1480.411884,-76456.330700
10579.867223,4589.276840,2812.782580,-80286.808190
10579.869774,3256.906145,296.082377,-76915.987999
10579.872325,-444.123565,4441.235652,-76303.111601
10579.874876,2812.782580,5625.565159,-77069.207099
10579.877426,7994.224174,3849.070898,-76915.987999
10579.879977,2812.782580,4293.194464,-78448.178995
10579.882528,8734.430116,3997.112087,-79367.493593
10579.885079,3256.906145,-1184.329507,-77988.521696
10579.887630,-1628.453072,1184.329507,-77988.521696
10579.890181,-3404.947333,1480.411884,-76762.768900
10579.892732,4589.276840,0.000000,-78448.178995
10579.895283,1628.453072,592.164754,-78141.740796
10579.897834,1776.494261,3997.112087,-79520.712692
10579.900385,-296.082377,-3108.864956,-79980.369991
10579.902936,-8438.347739,-4145.153275,-75996.673402
10579.905494,-4589.276840,-5921.647536,-79061.055394
10579.908049,5625.565159,-8142.265362,-78448.178995
10579.910604,-5033.400406,-7402.059420,-77375.645298
10579.913159,-10362.883188,-5625.565159,-76303.111601
10579.915714,-1776.494261,-3108.864956,-78448.178995
10579.918269,-3108.864956,-1332.370696,-76762.768900
10579.920824,-6957.935855,-888.247130,-77682.083497
10579.923379,2664.741391,-2960.823768,-79520.712692
10579.925934,888.247130,-2072.576638,-76609.549800
10579.928489,-10362.883188,-4885.359217,-76609.549800
10579.931045,-1036.288319,-3701.029710,-77682.083497
10579.933600,4145.153275,-7402.059420,-79061.055394
10579.936155,-5773.606348,444.123565,-76762.768900
10579.938710,2072.576638,1184.329507,-78448.178995
10579.941265,1480.411884,-5773.606348,-78754.617194
10579.943820,-4737.318029,-740.205942,-75537.016103
10579.946375,-4737.318029,-5625.565159,-79061.055394
10579.948930,1332.370696,-7254.018232,-76762.768900
10579.951485,-11991.336260,-7402.059420,-77682.083497
10579.954040,-5477.523971,-3552.988522,-79673.931792
10579.956595,-1332.370696,-4589.276840,-80440.027290
10579.959150,-1924.535449,-1480.411884,-76609.549800
10579.961706,-10955.047942,-592.164754,-76303.111601
10579.964261,1184.329507,-2368.659014,-78907.836294
10579.966816,-1036.288319,-3256.906145,-78141.740796
10579.969371,-3256.906145,148.041188,-77528.864398
10579.971926,7105.977043,-3849.070898,-78754.617194
10579.974481,9474.636058,1924.535449,-76915.987999
10579.977036,-1184.329507,4737.318029,-79673.931792
10579.979591,296.082377,3849.070898,-78141.740796
10579.982146,444.123565,-296.082377,-78294.959896
10579.984701,-2664.741391,3552.988522,-76149.892501
10579.987256,8142.265362,4589.276840,-77682.083497
10579.989812,9622.677246,-2368.659014,-77375.645298
10579.992367,-1480.411884,-1628.453072,-77682.083497
10579.994922,1924.535449,1332.370696,-78754.617194
10579.997477,740.205942,2220.617826,-76303.111601
10580.000032,-5329.482782,4293.194464,-74617.701505
10580.002587,2368.659014,1924.535449,-78601.398095
10580.005142,7254.018232,1480.411884,-79673.931792
10580.007672,-1480.411884,1036.288319,-74924.139704
10580.010201,-7550.100608,1184.329507,-78754.617194
10580.012731,4293.194464,-2664.741391,-80286.808190
10580.015261,2812.782580,592.164754,-78141.740796
10580.017790,-1924.535449,3404.947333,-78294.959896
10580.020320,9030.512492,3997.112087,-78601.398095
10580.022850,1924.535449,5477.523971,-76762.768900
10580.025379,3849.070898,5773.606348,-78448.178995
10580.027909,5921.647536,1628.453072,-79827.150892
10580.030439,4737.318029,148.041188,-76303.111601
10580.032968,-2220.617826,-1184.329507,-77682.083497
10580.035498,3256.906145,1628.453072,-79061.055394
10580.038028,296.082377,-2220.617826,-78141.740796
10580.040557,-2812.782580,-296.082377,-76303.111601
10580.043087,7550.100608,4737.318029,-79061.055394
10580.045617,-4885.359217,-3256.906145,-78294.959896
10580.048146,-7698.141797,-4885.359217,-74924.139704
10580.050676,-2072.576638,-6661.853478,-77375.645298
10580.053205,3997.112087,-8142.265362,-78754.617194
10580.055735,-4885.359217,-5921.647536,-77375.645298
10580.058265,-5921.647536,-5329.482782,-77682.083497
10580.060794,2072.576638,-4293.194464,-77375.645298
10580.063324,-8438.347739,740.205942,-76762.768900
10580.065854,-1480.411884,-888.247130,-78448.178995
10580.068383,2664.741391,-2220.617826,-78448.178995
10580.070913,-1332.370696,-1332.370696,-77069.207099
10580.073443,-7698.141797,-5329.482782,-76456.330700
10580.075972,1036.288319,-1628.453072,-78448.178995
10580.078502,3849.070898,-7105.977043,-80593.246390
10580.081032,-2072.576638,-148.041188,-77375.645298
10580.083561,2664.741391,1184.329507,-79214.274493
10580.086091,-2368.659014,-2368.659014,-76149.892501
10580.088621,-4145.153275,-5033.400406,-78294.959896
10580.091150,-11695.253884,-7846.182985,-79673.931792
10580.093680,0.000000,-5329.482782,-77222.426198
10580.096210,-6661.853478,-6365.771101,-77682.083497
10580.098739,-8438.347739,-2072.576638,-78141.740796
10580.101269,-2220.617826,-4293.194464,-79827.150892
10580.103799,-3108.864956,-2812.782580,-77222.426198
10580.106328,-8882.471304,-2072.576638,-77069.207099
10580.108866,6365.771101,-740.205942,-78601.398095
10580.111404,592.164754,-3108.864956,-78141.740796
10580.113942,3108.864956,-1184.329507,-75996.673402
10580.116480,7846.182985,3108.864956,-78448.178995
10580.119018,6957.935855,1184.329507,-77682.083497
10580.121556,-7254.018232,2516.700203,-76149.892501
10580.124094,444.123565,3701.029710,-78141.740796
10580.126631,4589.276840,-888.247130,-78294.959896
10580.129169,2960.823768,3849.070898,-75996.673402
10580.131707,7550.100608,1776.494261,-78448.178995
10580.134245,5477.523971,-2812.782580,-76762.768900
10580.136783,-3108.864956,1036.288319,-76915.987999
10580.139321,-1924.535449,3701.029710,-78141.740796
10580.141859,4293.194464,2960.823768,-78907.836294
10580.144397,4589.276840,3701.029710,-77222.426198
10580.146935,1924.535449,1332.370696,-78141.740796
10580.149472,2664.741391,592.164754,-78754.617194
10580.152010,-3108.864956,1036.288319,-77528.864398
10580.154548,-6513.812290,-148.041188,-78754.617194
10580.157086,9326.594869,1628.453072,-78907.836294
10580.159624,5329.482782,2812.782580,-77069.207099
10580.162162,1628.453072,6365.771101,-74311.263306
10580.164700,8290.306550,3108.864956,-79520.712692
10580.167238,7698.141797,3849.070898,-78141.740796
10580.169776,-3256.906145,1924.535449,-77375.645298
10580.172314,7402.059420,2812.782580,-79061.055394
10580.174851,2220.617826,-1332.370696,-76915.987999
10580.177389,-2812.782580,-592.164754,-76303.111601
10580.179927,1776.494261,-1628.453072,-78294.959896
10580.182465,9622.677246,888.247130,-79520.712692
10580.185003,-7402.059420,-1184.329507,-77682.083497
10580.187541,-6217.729913,-5329.482782,-78448.178995
10580.190079,296.082377,-8586.388927,-78141.740796
10580.192617,-4293.194464,-3701.029710,-75996.673402
10580.195155,-4737.318029,-5921.647536,-78141.740796
10580.197692,1924.535449,-7994.224174,-78448.178995
10580.200230,-7550.100608,-4441.235652,-75843.454302
10580.202768,-9326.594869,444.123565,-76303.111601
10580.205306,-444.123565,-1332.370696,-78754.617194
10580.207844,0.000000,-3701.029710,-76149.892501
10580.210389,-5921.647536,-2220.617826,-76609.549800
10580.212934,2220.617826,-6217.729913,-79367.493593
10580.215479,-3849.070898,-3701.029710,-76456.330700
10580.218024,-5477.523971,-1480.411884,-78448.178995
10580.220569,1628.453072,-6809.894666,-80440.027290
10580.223115,2664.741391,1924.535449,-76303.111601
10580.225660,-3108.864956,-2516.700203,-75537.016103
10580.228205,-3701.029710,-3701.029710,-78448.178995
10580.230750,1924.535449,-9030.512492,-80286.808190
10580.233295,-11251.130318,-4293.194464,-75537.016103
10580.235840,-4589.276840,-5921.647536,-79214.274493
10580.238385,-2812.782580,-7254.018232,-76456.330700
10580.240930,-7846.182985,-4589.276840,-76915.987999
10580.243475,-6069.688724,-2072.576638,-78754.617194
10580.246020,-1332.370696,-5329.482782,-77835.302597
10580.248565,1332.370696,-2812.782580,-78448.178995
10580.251111,-2664.741391,888.247130,-77528.864398
10580.253656,9770.718434,-4441.235652,-79214.274493
10580.256201,8438.347739,4737.318029,-75843.454302
10580.258746,444.123565,3701.029710,-78601.398095
10580.261291,5181.441594,2664.741391,-78754.617194
10580.263836,-2664.741391,2664.741391,-75843.454302
10580.266381,-592.164754,2516.700203,-77069.207099
10580.268926,12139.377449,3108.864956,-79061.055394
10580.271471,7994.224174,-592.164754,-76915.987999
10580.274016,-1036.288319,-888.247130,-75230.577904
10580.276561,1184.329507,2812.782580,-78754.617194
10580.279106,1776.494261,592.164754,-77682.083497
10580.281652,-6809.894666,3849.070898,-76303.111601
10580.284197,8438.347739,3849.070898,-77835.302597
10580.286742,4885.359217,-3256.906145,-77069.207099
10580.289287,-1924.535449,-888.247130,-75843.454302
10580.291832,-4885.359217,888.247130,-76762.768900
10580.294377,5477.523971,2664.741391,-80133.589091
10580.296922,3701.029710,740.205942,-78907.836294
10580.299467,1036.288319,8142.265362,-78141.740796
10580.302012,10362.883188,1628.453072,-78141.740796
10580.304557,7105.977043,4737.318029,-78141.740796
10580.307102,-1184.329507,3256.906145,-79673.931792
10580.309648,10807.006753,1184.329507,-78601.398095
10580.312199,296.082377,2368.659014,-76762.768900
10580.314750,-2516.700203,1628.453072,-76303.111601
10580.317301,592.164754,-1036.288319,-77682.083497
10580.319852,5773.606348,-1776.494261,-78141.740796
10580.322404,-2072.576638,1924.535449,-76762.768900
10580.324955,-3404.947333,-3256.906145,-79367.493593
10580.327506,-2812.782580,-6809.894666,-75996.673402
10580.330057,-7254.018232,-6513.812290,-76149.892501
10580.332609,-148.041188,-5329.482782,-79061.055394
10580.335160,-1924.535449,-8438.347739,-77069.207099
10580.337711,-4293.194464,-6809.894666,-76456.330700
10580.340262,-4589.276840,444.123565,-77222.426198
10580.342813,888.247130,-3404.947333,-77682.083497
10580.345365,-4441.235652,-888.247130,-77069.207099
10580.347916,-1332.370696,-3849.070898,-77835.302597
10580.350467,3701.029710,-4885.359217,-77835.302597
10580.353018,-5329.482782,-5181.441594,-75077.358804
10580.355570,-2960.823768,-1924.535449,-78601.398095
10580.358121,6217.729913,-4737.318029,-79214.274493
10580.360672,1332.370696,-3997.112087,-78141.740796
10580.363223,-2368.659014,1184.329507,-75843.454302
10580.365774,-148.041188,-5921.647536,-79061.055394
10580.368326,148.041188,-2812.782580,-75077.358804
10580.370877,-13915.871710,-7550.100608,-77835.302597
10580.373428,-1924.535449,-3552.988522,-78448.178995
10580.375979,-6217.729913,-7105.977043,-78141.740796
10580.378531,-8290.306550,-1184.329507,-75996.673402
10580.381082,-4737.318029,-6661.853478,-78907.836294
10580.383633,2368.659014,-3256.906145,-77069.207099
10580.386184,-5329.482782,-1184.329507,-76762.768900
10580.388736,2368.659014,-148.041188,-79214.274493
10580.391287,4441.235652,-3701.029710,-78448.178995
10580.393838,4293.194464,1628.453072,-76915.987999
10580.396389,5773.606348,5477.523971,-78294.959896
10580.398940,3701.029710,-1036.288319,-78294.959896
10580.401492,-6957.935855,1924.535449,-76915.987999
10580.404043,2516.700203,4589.276840,-78141.740796
10580.406594,9918.759623,2516.700203,-79367.493593
10580.409145,6513.812290,-1184.329507,-77988.521696
10580.411697,0.000000,1184.329507,-77069.207099
10580.414252,6217.729913,1628.453072,-77528.864398
10580.416808,-1036.288319,2072.576638,-77528.864398
10580.419364,-3997.112087,5329.482782,-77682.083497
10580.421919,9030.512492,0.000000,-79214.274493
10580.424475,2072.576638,-296.082377,-77222.426198
10580.427031,-2664.741391,-1184.329507,-74004.825107
10580.429586,296.082377,0.000000,-77682.083497
10580.432142,2812.782580,2072.576638,-79214.274493
10580.434698,-1628.453072,2812.782580,-77069.207099
10580.437254,8142.265362,5625.565159,-77682.083497
10580.439809,7550.100608,3997.112087,-76915.987999
10580.442365,2516.700203,3256.906145,-76762.768900
10580.444921,3701.029710,2368.659014,-79520.712692
10580.447476,7994.224174,2072.576638,-75843.454302
10580.450032,1924.535449,1480.411884,-77988.521696
10580.452588,-5033.400406,2664.741391,-77988.521696
10580.455143,7105.977043,-2812.782580,-79214.274493
10580.457699,3108.864956,1480.411884,-77375.645298
10580.460255,-6069.688724,-148.041188,-79214.274493
10580.462811,-1332.370696,-6069.688724,-78754.617194
10580.465366,-4589.276840,-4737.318029,-76456.330700
10580.467922,-6217.729913,-5033.400406,-79214.274493
10580.470478,1776.494261,-7994.224174,-79061.055394
10580.473033,-1628.453072,-6513.812290,-77222.426198
10580.475589,-9178.553681,-2368.659014,-75537.016103
10580.478145,-740.205942,-1480.411884,-78294.959896
10580.480700,-2664.741391,-1036.288319,-77222.426198
10580.483256,-5773.606348,-3552.988522,-77682.083497
10580.485812,-1184.329507,-3701.029710,-79214.274493
10580.488368,1036.288319,-4145.153275,-75230.577904
10580.490923,-2664.741391,-2220.617826,-76149.892501
10580.493479,-5477.523971,-1776.494261,-79367.493593
10580.496035,-592.164754,1776.494261,-78141.740796
10580.498590,2220.617826,-5921.647536,-76303.111601
10580.501146,-5625.565159,-5033.400406,-74924.139704
10580.503702,-1184.329507,-6069.688724,-78141.740796
10580.506257,-3108.864956,-4589.276840,-77682.083497
10580.508813,-12435.459826,-6809.894666,-76456.330700
10580.511369,-2960.823768,-4589.276840,-79061.055394
10580.513925,-7254.018232,-5625.565159,-76915.987999
10580.516484,-7254.018232,-5625.565159,-75843.454302
10580.519044,-3404.947333,296.082377,-77528.864398
10580.521604,6809.894666,0.000000,-77682.083497
10580.524164,-4293.194464,-1036.288319,-76762.768900
10580.526724,6217.729913,1776.494261,-78754.617194
10580.529283,9770.718434,740.205942,-79214.274493
10580.531843,592.164754,4589.276840,-77069.207099
10580.534403,444.123565,2516.700203,-78601.398095
10580.536963,2812.782580,-296.082377,-78141.740796
10580.539522,3404.947333,3108.864956,-77375.645298
10580.542082,296.082377,4885.359217,-78141.740796
10580.544642,10510.924376,296.082377,-79827.150892
10580.547202,2072.576638,2072.576638,-76762.768900
10580.549762,-4737.318029,3108.864956,-77222.426198
10580.552321,1628.453072,2516.700203,-77988.521696
10580.554881,2220.617826,4737.318029,-77069.207099
10580.557441,296.082377,-1332.370696,-79061.055394
10580.560001,6661.853478,2072.576638,-79673.931792
10580.562561,7994.224174,-2664.741391,-76149.892501
10580.565120,-5329.482782,-592.164754,-77835.302597
10580.567680,5477.523971,3256.906145,-79827.150892
10580.570240,3701.029710,2664.741391,-77682.083497
10580.572800,4589.276840,4589.276840,-73851.606007
10580.575360,9326.594869,3404.947333,-79520.712692
10580.577919,9326.594869,2516.700203,-77835.302597
10580.580479,-2516.700203,1480.411884,-77069.207099
10580.583039,5477.523971,5181.441594,-76762.768900
10580.585599,5329.482782,-1332.370696,-79061.055394
10580.588158,1332.370696,-1776.494261,-76762.768900
10580.590718,888.247130,1036.288319,-77682.083497
10580.593278,4441.235652,0.000000,-78601.398095
10580.595838,-8142.265362,-5477.523971,-78141.740796
10580.598401,-7254.018232,-4293.194464,-78141.740796
10580.600964,1184.329507,-6957.935855,-79827.150892
10580.603528,-5477.523971,-4737.318029,-76915.987999
10580.606091,-5329.482782,-4737.318029,-77988.521696
10580.608654,-740.205942,-3552.988522,-77682.083497
10580.611217,-2220.617826,-1924.535449,-77222.426198
10580.613781,-9326.594869,-2812.782580,-76609.549800
10580.616344,-1480.411884,-1776.494261,-78754.617194
10580.618907,592.164754,-5033.400406,-77528.864398
10580.621470,-8586.388927,-2812.782580,-75996.673402
10580.624034,-1628.453072,-6661.853478,-77835.302597
10580.626597,1628.453072,-3108.864956,-76456.330700
10580.629160,-2368.659014,-2516.700203,-77835.302597
10580.631723,-3849.070898,-2812.782580,-77528.864398
10580.634287,5477.523971,-4145.153275,-77375.645298
10580.636850,-7698.141797,-6661.853478,-76762.768900
10580.639413,-6069.688724,-5773.606348,-78754.617194
10580.641976,-2812.782580,-6513.812290,-77222.426198
10580.644540,-9030.512492,-4885.359217,-75383.797003
10580.647103,-7254.018232,-5921.647536,-78754.617194
10580.649666,-1480.411884,-7550.100608,-78294.959896
10580.652230,-4145.153275,-4145.153275,-75537.016103
10580.654793,-444.123565,1776.494261,-75996.673402
10580.657356,1036.288319,-1924.535449,-78448.178995
10580.659919,8438.347739,3404.947333,-76762.768900
10580.662483,-148.041188,1924.535449,-77835.302597
10580.665046,9030.512492,6809.894666,-77222.426198
10580.667609,-1036.288319,1332.370696,-77222.426198
10580.670172,-1924.535449,3404.947333,-76609.549800
10580.672736,3256.906145,1036.288319,-79520.712692
10580.675299,6957.935855,4293.194464,-77988.521696
10580.677862,-592.164754,740.205942,-77528.864398
10580.680425,4441.235652,1776.494261,-78294.959896
10580.682989,4737.318029,-740.205942,-78448.178995
10580.685552,-8586.388927,5329.482782,-76762.768900
10580.688115,4293.194464,2516.700203,-79520.712692
10580.690678,6661.853478,-2812.782580,-79367.493593
10580.693242,-1776.494261,444.123565,-75690.235202
10580.695805,-5033.400406,592.164754,-79214.274493
10580.698368,5329.482782,2516.700203,-79827.150892
10580.700933,2960.823768,1776.494261,-79673.931792
10580.703499,-1480.411884,6513.812290,-77069.207099
10580.706064,13175.665768,2960.823768,-78907.836294
10580.708629,8438.347739,5329.482782,-77222.426198
10580.711195,148.041188,2072.576638,-78601.398095
10580.713760,12139.377449,3108.864956,-78601.398095
10580.716325,0.000000,148.041188,-76609.549800
10580.718891,-2220.617826,1776.494261,-77682.083497
10580.721456,1924.535449,-2812.782580,-78601.398095
10580.724021,7846.182985,-888.247130,-77222.426198
10580.726587,-11843.295072,-5033.400406,-76456.330700
10580.729152,-740.205942,-2220.617826,-78141.740796
10580.731717,-2812.782580,-9326.594869,-77222.426198
10580.734283,-7698.141797,-2664.741391,-75230.577904
10580.736848,-3256.906145,-6513.812290,-79061.055394
10580.739413,296.082377,-5181.441594,-76456.330700
10580.741979,-7994.224174,-4737.318029,-76303.111601
10580.744544,-8438.347739,-1480.411884,-77069.207099
10580.747109,2072.576638,-1480.411884,-79367.493593
10580.749675,-4145.153275,-3256.906145,-77682.083497
10580.752240,-3256.906145,-4145.153275,-78141.740796
10580.754805,1480.411884,-4441.235652,-77835.302597
10580.757370,-2220.617826,-2368.659014,-76609.549800
10580.759936,-4589.276840,-1184.329507,-79520.712692
10580.762501,3552.988522,-3404.947333,-79367.493593
10580.765066,-1332.370696,-5181.441594,-77375.645298
10580.767632,-9918.759623,-4589.276840,-75690.235202
10580.770197,-2220.617826,-4589.276840,-77835.302597
10580.772762,-5033.400406,-6069.688724,-78294.959896
10580.775328,-12879.583391,-4737.318029,-77835.302597
10580.777893,-3404.947333,-5773.606348,-79214.274493
10580.780458,-5329.482782,-8290.306550,-77528.864398
10580.783024,-5921.647536,-3256.906145,-75383.797003
10580.785589,3552.988522,-1480.411884,-79214.274493
10580.788154,3256.906145,-3552.988522,-79061.055394
10580.790720,3552.988522,2960.823768,-78141.740796
10580.793285,3404.947333,3997.112087,-79061.055394
10580.795850,11695.253884,2960.823768,-78754.617194
10580.798416,-2960.823768,2368.659014,-75690.235202
10580.800981,-1184.329507,296.082377,-78294.959896
10580.803548,6661.853478,-296.082377,-78907.836294
10580.806115,1924.535449,5033.400406,-76149.892501
10580.808683,3404.947333,592.164754,-78754.617194
10580.811250,6957.935855,2220.617826,-78141.740796
10580.813817,2220.617826,296.082377,-76915.987999
10580.816385,-6809.894666,7550.100608,-75383.797003
10580.818952,5033.400406,-148.041188,-80286.808190
10580.821519,2664.741391,148.041188,-77988.521696
10580.824086,-1332.370696,1628.453072,-77069.207099
10580.826654,1036.288319,-1184.329507,-78601.398095
10580.829221,2516.700203,3256.906145,-76303.111601
10580.831788,-6069.688724,0.000000,-78907.836294
10580.834356,7846.182985,8142.265362,-78448.178995
10580.836923,11695.253884,2516.700203,-78601.398095
10580.839490,5033.400406,7550.100608,-73698.386908
10580.842058,3849.070898,1184.329507,-81206.122788
10580.844625,7402.059420,2220.617826,-77375.645298
10580.847192,-5477.523971,148.041188,-77222.426198
10580.849759,2516.700203,3108.864956,-77528.864398
10580.852327,3256.906145,-4589.276840,-78754.617194
10580.854894,1628.453072,-740.205942,-77835.302597
10580.857461,-10807.006753,-5625.565159,-77988.521696
10580.860029,0.000000,-3849.070898,-77682.083497
10580.862596,-4441.235652,-6513.812290,-77988.521696
10580.865163,-6957.935855,-2664.741391,-77222.426198
10580.867731,1776.494261,-6809.894666,-78294.959896
10580.870298,-888.247130,-6661.853478,-77375.645298
10580.872865,-6365.771101,-148.041188,-76456.330700
10580.875432,1776.494261,-4145.153275,-77528.864398
10580.878000,-2220.617826,-2368.659014,-76762.768900
10580.880567,-8734.430116,-4737.318029,-77682.083497
10580.883134,1480.411884,-1332.370696,-78294.959896
10580.885702,-1332.370696,-7254.018232,-76456.330700
10580.888269,-1036.288319,-1628.453072,-75996.673402
10580.890836,-2072.576638,-2960.823768,-79827.150892
10580.893403,2368.659014,-1924.535449,-77375.645298
10580.895971,-8882.471304,-4293.194464,-76456.330700
10580.898538,-740.205942,-2664.741391,-76456.330700
10580.901105,-5477.523971,-10066.800811,-78754.617194
10580.903673,-10807.006753,-7698.141797,-76762.768900
10580.906247,-10658.965565,-3701.029710,-77222.426198
10580.908816,-2812.782580,-4589.276840,-78754.617194
10580.911385,-2072.576638,-4737.318029,-77222.426198
10580.913954,-3701.029710,-2960.823768,-77682.083497
10580.916523,296.082377,1776.494261,-77835.302597
10580.919092,6217.729913,-740.205942,-77222.426198
10580.921661,2368.659014,4885.359217,-77069.207099
10580.924230,9622.677246,3849.070898,-79673.931792
10580.926799,7254.018232,148.041188,-78294.959896
10580.929368,-2220.617826,1480.411884,-76762.768900
10580.931937,-1036.288319,2664.741391,-79061.055394
10580.934506,9918.759623,888.247130,-79367.493593
10580.937075,2072.576638,1480.411884,-77835.302597
10580.939643,3701.029710,2368.659014,-78754.617194
10580.942212,5921.647536,-740.205942,-79214.274493
10580.944781,-5033.400406,4293.194464,-75690.235202
10580.947350,1628.453072,3552.988522,-77069.207099
10580.949919,3849.070898,-1776.494261,-79520.712692
10580.952488,3849.070898,1332.370696,-75996.673402
10580.955057,-4589.276840,-1480.411884,-76915.987999
10580.957626,0.000000,2516.700203,-77682.083497
10580.960195,4293.194464,2368.659014,-77222.426198
10580.962764,592.164754,5921.647536,-77222.426198
10580.965333,12139.377449,4885.359217,-79061.055394
10580.967902,7994.224174,6365.771101,-76303.111601
10580.970471,2516.700203,4885.359217,-77528.864398
10580.973040,0.000000,3404.947333,-79061.055394
10580.975609,2664.741391,-2220.617826,-77528.864398
10580.978177,-3701.029710,-592.164754,-77069.207099
10580.980746,5921.647536,740.205942,-79061.055394
10580.983315,1924.535449,-4885.359217,-78907.836294
10580.985884,-11547.212695,-5477.523971,-75843.454302
10580.988453,-2664.741391,-3701.029710,-77682.083497
10580.991022,-3108.864956,-9178.553681,-79520.712692
10580.993591,-8734.430116,-4145.153275,-77069.207099
10580.996160,-7105.977043,-4885.359217,-77375.645298
10580.998729,4441.235652,-5477.523971,-80133.589091
10581.001298,-3849.070898,-296.082377,-76149.892501
10581.003867,-10362.883188,-2812.782580,-77835.302597
10581.006436,1184.329507,-3701.029710,-79061.055394
10581.008977,-1628.453072,-3849.070898,-77528.864398
10581.011518,-2220.617826,-1036.288319,-77988.521696
10581.014059,2368.659014,-7846.182985,-78907.836294
10581.016600,1332.370696,-1184.329507,-77528.864398
10581.019141,-2220.617826,-5329.482782,-77069.207099
10581.021682,-1628.453072,-1776.494261,-77069.207099
10581.024223,3849.070898,-4441.235652,-76456.330700
10581.026764,-12435.459826,-7105.977043,-75996.673402
10581.029305,-5329.482782,-7698.141797,-78141.740796
10581.031846,-7105.977043,-6217.729913,-76303.111601
10581.034387,-11251.130318,-6661.853478,-75383.797003
10581.036928,-2812.782580,-3701.029710,-78448.178995
10581.039469,7254.018232,-1332.370696,-78448.178995
10581.042010,-2072.576638,-1036.288319,-77528.864398
10581.044551,-2812.782580,1184.329507,-77528.864398
10581.047092,12139.377449,4885.359217,-78907.836294
10581.049633,6217.729913,4293.194464,-77835.302597
10581.052174,-148.041188,3552.988522,-78907.836294
10581.054715,5329.482782,2960.823768,-78141.740796
10581.057256,-1184.329507,2220.617826,-76456.330700
10581.059797,-1036.288319,1924.535449,-79520.712692
10581.062338,5477.523971,2516.700203,-79520.712692
10581.064879,6957.935855,-1628.453072,-78601.398095
10581.067420,-1776.494261,2812.782580,-75843.454302
10581.069961,3997.112087,2220.617826,-77682.083497
10581.072502,2220.617826,1332.370696,-77988.521696
10581.075043,-2220.617826,740.205942,-77375.645298
10581.077584,4737.318029,-592.164754,-78754.617194
10581.080125,2516.700203,-2516.700203,-77069.207099
10581.082666,-6069.688724,4145.153275,-76149.892501
10581.085207,-1480.411884,888.247130,-77069.207099
10581.087748,12879.583391,4441.235652,-79520.712692
10581.090289,3997.112087,4737.318029,-77222.426198
10581.092830,9474.636058,6809.894666,-76149.892501
10581.095371,9178.553681,0.000000,-77682.083497
10581.097912,592.164754,4441.235652,-76149.892501
10581.100453,-1776.494261,444.123565,-80133.589091
10581.102994,4145.153275,-2220.617826,-77528.864398
10581.105535,-888.247130,-1628.453072,-76609.549800
10581.108076,-6513.812290,-1036.288319,-77528.864398
10581.110623,-1036.288319,-6957.935855,-77988.521696
10581.113170,-5773.606348,-5477.523971,-76303.111601
10581.115717,-9030.512492,-3701.029710,-77375.645298
10581.118265,-888.247130,-5329.482782,-80286.808190
10581.120812,-1628.453072,-5625.565159,-77835.302597
10581.123359,-6069.688724,-3849.070898,-77835.302597
10581.125906,1628.453072,-2368.659014,-78448.178995
10581.128453,-4885.359217,-3256.906145,-76762.768900
10581.131000,-9030.512492,-3404.947333,-76915.987999
10581.133547,-1628.453072,-2664.741391,-78448.178995
10581.136094,4145.153275,-4737.318029,-77682.083497
10581.138641,-4145.153275,-5477.523971,-75996.673402
10581.141189,-5033.400406,-1184.329507,-77988.521696
10581.143736,6661.853478,-6809.894666,-77375.645298
10581.146283,-8586.388927,-2516.700203,-75996.673402
10581.148830,-888.247130,-1332.370696,-77375.645298
10581.151377,-740.205942,-9622.677246,-79673.931792
10581.153924,-8142.265362,-5921.647536,-78907.836294
10581.156471,-13027.624579,-4885.359217,-77069.207099
10581.159018,-1332.370696,-6809.894666,-77375.645298
10581.161565,-4589.276840,-4885.359217,-76149.892501
10581.164113,-2220.617826,-296.082377,-78448.178995
10581.166660,3701.029710,-2072.576638,-78601.398095
10581.169207,1036.288319,1332.370696,-75383.797003
10581.171754,3108.864956,5033.400406,-77835.302597
10581.174301,10955.047942,6957.935855,-79061.055394
10581.176848,2072.576638,888.247130,-77682.083497
10581.179395,-4293.194464,1776.494261,-76149.892501
10581.181942,3108.864956,740.205942,-79980.369991
10581.184489,4145.153275,1924.535449,-77069.207099
10581.187037,592.164754,-740.205942,-78294.959896
10581.189584,8438.347739,3108.864956,-78754.617194
10581.192131,4145.153275,1036.288319,-77835.302597
10581.194678,-6661.853478,1480.411884,-75230.577904
10581.197225,-148.041188,4293.194464,-79061.055394
10581.199772,6957.935855,-3552.988522,-81052.903688
10581.202319,-888.247130,-740.205942,-77069.207099
10581.204866,1480.411884,296.082377,-76762.768900
10581.207413,2220.617826,444.123565,-76762.768900
10581.209961,3108.864956,2516.700203,-77069.207099
10581.212513,2812.782580,5329.482782,-79367.493593
10581.215066,17468.860231,4737.318029,-77069.207099
10581.217618,3849.070898,3404.947333,-76609.549800
10581.220171,2072.576638,5773.606348,-77835.302597
10581.222723,-148.041188,-1480.411884,-78754.617194
10581.225276,-148.041188,1332.370696,-75843.454302
10581.227828,-2368.659014,-740.205942,-76915.987999
10581.230381,7698.141797,888.247130,-78448.178995
10581.232933,-5033.400406,-7550.100608,-77988.521696
10581.235486,-10066.800811,-2368.659014,-75996.673402
10581.238038,-3256.906145,-6957.935855,-79061.055394
10581.240591,-3849.070898,-3404.947333,-76762.768900
10581.243143,-9474.636058,-5773.606348,-78754.617194
10581.245696,148.041188,-2516.700203,-78294.959896
10581.248248,2960.823768,-5625.565159,-78448.178995
10581.250801,-9474.636058,-2516.700203,-76149.892501
10581.253353,-3997.112087,-1924.535449,-79980.369991
10581.255906,1036.288319,-5921.647536,-77835.302597
10581.258458,-3849.070898,-148.041188,-76456.330700
10581.261011,296.082377,-7846.182985,-79061.055394
10581.263563,5329.482782,-1036.288319,-76456.330700
10581.266116,3849.070898,-7402.059420,-77835.302597
10581.268668,-8586.388927,-3404.947333,-76303.111601
10581.271221,4589.276840,-6069.688724,-78754.617194
10581.273774,-7846.182985,-4145.153275,-77222.426198
10581.276326,-12287.418637,-7254.018232,-79061.055394
10581.278879,-3701.029710,-8142.265362,-77528.864398
10581.281431,-6957.935855,-7254.018232,-76915.987999
10581.283984,-9474.636058,-3701.029710,-77069.207099
10581.286536,6809.894666,-3256.906145,-78754.617194
10581.289089,740.205942,-3108.864956,-77682.083497
10581.291641,-888.247130,3997.112087,-75383.797003
10581.294194,9918.759623,4441.235652,-77988.521696
10581.296746,8734.430116,3997.112087,-77682.083497
10581.299299,-1628.453072,2664.741391,-76915.987999
10581.301851,2220.617826,2368.659014,-78448.178995
10581.304404,3701.029710,1036.288319,-77069.207099
10581.306956,-2516.700203,888.247130,-75996.673402
10581.309509,6513.812290,1924.535449,-79520.712692
10581.312061,10214.842000,296.082377,-80133.589091
10581.314619,-296.082377,3849.070898,-77835.302597
10581.317176,-1924.535449,2960.823768,-78754.617194
10581.319733,4737.318029,148.041188,-77222.426198
10581.322291,2812.782580,-2812.782580,-77528.864398
10581.324848,-1924.535449,-3108.864956,-76609.549800
10581.327405,2220.617826,4145.153275,-77835.302597
10581.329962,1480.411884,740.205942,-77988.521696
10581.332520,444.123565,5625.565159,-77375.645298
10581.335077,6957.935855,6809.894666,-79061.055394
10581.337634,15692.365970,4737.318029,-77682.083497
10581.340192,3701.029710,4737.318029,-76609.549800
10581.342749,2664.741391,3849.070898,-77835.302597
10581.345306,1628.453072,-3256.906145,-78754.617194
10581.347864,-2664.741391,-1036.288319,-76149.892501
10581.350421,3701.029710,-888.247130,-79061.055394
10581.352978,2516.700203,-6513.812290,-78754.617194
10581.355536,-3256.906145,-5181.441594,-76915.987999
10581.358093,-12287.418637,-2960.823768,-74924.139704
10581.360650,-3108.864956,-6513.812290,-78907.836294
10581.363207,-5625.565159,-5773.606348,-77835.302597
10581.365765,-6661.853478,-2516.700203,-78448.178995
10581.368322,3849.070898,-5181.441594,-79061.055394
10581.370879,-2220.617826,-2220.617826,-76456.330700
10581.373437,-12139.377449,-1924.535449,-76456.330700
10581.375994,-1036.288319,-4589.276840,-79520.712692
10581.378551,3108.864956,-3849.070898,-78141.740796
10581.381109,-5477.523971,-3404.947333,-76762.768900
10581.383666,1184.329507,-1036.288319,-78141.740796
10581.386223,5033.400406,-6069.688724,-78141.740796
10581.388781,-7846.182985,-3256.906145,-76915.987999
10581.391338,-1332.370696,-4589.276840,-78907.836294
10581.393895,-3404.947333,-4145.153275,-76149.892501
10581.396452,-12731.542202,-9178.553681,-77375.645298
10581.399010,-6661.853478,-4293.194464,-79061.055394
10581.401567,-1036.288319,-6365.771101,-77069.207099
10581.404124,-2664.741391,-6661.853478,-76762.768900
10581.406682,-1924.535449,2664.741391,-77835.302597
10581.409239,4589.276840,-2368.659014,-79980.369991
10581.411796,2664.741391,1184.329507,-76456.330700
10581.414354,1480.411884,6661.853478,-78294.959896
10581.416914,14063.912898,6069.688724,-79980.369991
10581.419475,-3256.906145,4737.318029,-77528.864398
10581.422035,-148.041188,888.247130,-77682.083497
10581.424596,2812.782580,888.247130,-78754.617194
10581.427156,4293.194464,444.123565,-78294.959896
10581.429717,-1184.329507,1480.411884,-77222.426198
10581.432278,9030.512492,1924.535449,-79827.150892
10581.434838,6217.729913,1332.370696,-77528.864398
10581.437399,-4145.153275,2368.659014,-76609.549800
10581.439959,-148.041188,1924.535449,-77835.302597
10581.442520,6069.688724,-3404.947333,-76609.549800
10581.445080,-4589.276840,-1924.535449,-77069.207099
10581.447641,-2072.576638,3108.864956,-77069.207099
10581.450201,6661.853478,-1184.329507,-78294.959896
10581.452762,888.247130,5181.441594,-77375.645298
10581.455323,6661.853478,7402.059420,-77528.864398
10581.457883,14359.995275,5625.565159,-77835.302597
10581.460444,6069.688724,4885.359217,-77375.645298
10581.463004,3404.947333,6217.729913,-78754.617194
10581.465565,148.041188,-3404.947333,-78448.178995
10581.468125,3552.988522,-2368.659014,-76456.330700
10581.470686,-2960.823768,1184.329507,-77835.302597
10581.473247,3404.947333,-7846.182985,-79980.369991
10581.475807,-4441.235652,-6661.853478,-76762.768900
10581.478368,-11399.171507,-3404.947333,-76149.892501
10581.480928,-1480.411884,-3552.988522,-78601.398095
10581.483489,-6217.729913,-7846.182985,-78754.617194
10581.486049,-5181.441594,-1036.288319,-76762.768900
10581.488610,3997.112087,-7402.059420,-80593.246390
10581.491171,-1628.453072,-2960.823768,-77069.207099
10581.493731,-11103.089130,-4441.235652,-76762.768900
10581.496292,-1480.411884,-5181.441594,-79061.055394
10581.498852,1480.411884,-4885.359217,-77682.083497
10581.501413,-2664.741391,-3404.947333,-75537.016103
10581.503973,592.164754,296.082377,-79980.369991
10581.506534,3849.070898,-6809.894666,-77528.864398
10581.509094,-7994.224174,-4441.235652,-75690.235202
10581.511655,444.123565,-2812.782580,-77528.864398
10581.514216,-2960.823768,-6069.688724,-77682.083497
10581.516776,-9326.594869,-6809.894666,-77069.207099
10581.519340,-14063.912898,-7402.059420,-78294.959896
10581.521903,-444.123565,-9326.594869,-78907.836294
10581.524467,-4293.194464,-2664.741391,-76149.892501
10581.527031,-740.205942,296.082377,-78754.617194
10581.529594,2812.782580,-4293.194464,-80593.246390
10581.532158,5181.441594,5477.523971,-76609.549800
10581.534722,2960.823768,6069.688724,-78294.959896
10581.537285,7846.182985,6069.688724,-79520.712692
10581.539849,1480.411884,1924.535449,-77988.521696
10581.542412,-3997.112087,2072.576638,-75537.016103
10581.544976,5181.441594,-444.123565,-79061.055394
10581.547540,3552.988522,1776.494261,-76149.892501
10581.550103,1924.535449,-296.082377,-78294.959896
10581.552667,8438.347739,2960.823768,-77375.645298
10581.555231,4589.276840,2072.576638,-75996.673402
10581.557794,-1776.494261,3849.070898,-76762.768900
10581.560358,-1332.370696,1332.370696,-77835.302597
10581.562922,7550.100608,-3108.864956,-79061.055394
10581.565485,1628.453072,2368.659014,-76456.330700
10581.568049,-740.205942,3701.029710,-77528.864398
10581.570612,9178.553681,296.082377,-78754.617194
10581.573176,740.205942,5033.400406,-75843.454302
10581.575740,10362.883188,7994.224174,-78754.617194
10581.578303,14508.036463,5329.482782,-79214.274493
10581.580867,3701.029710,5625.565159,-78141.740796
10581.583431,-7550.100608,-1036.288319,-77835.302597
10581.585994,4885.359217,-2812.782580,-78754.617194
10581.588558,3404.947333,-592.164754,-75690.235202
10581.591121,-6513.812290,-2516.700203,-79214.274493
10581.593685,-1628.453072,-9030.512492,-79827.150892
10581.596249,-3552.988522,-8586.388927,-77222.426198
10581.598812,-11103.089130,-2664.741391,-74924.139704
10581.601376,-1332.370696,-5773.606348,-79061.055394
10581.603940,1332.370696,-7994.224174,-77835.302597
10581.606503,-5773.606348,-4737.318029,-75843.454302
10581.609067,-1480.411884,-1480.411884,-77835.302597
10581.611631,-4145.153275,-4589.276840,-76762.768900
10581.614194,-5033.400406,-6957.935855,-75383.797003
10581.616758,-1480.411884,-2368.659014,-78141.740796
10581.619321,296.082377,-2812.782580,-77528.864398
10581.621887,-2812.782580,-1924.535449,-77069.207099
10581.624452,1036.288319,-2664.741391,-78754.617194
10581.627018,2220.617826,-4441.235652,-77988.521696
10581.629584,-4737.318029,-5329.482782,-76915.987999
10581.632149,-10510.924376,-4589.276840,-77375.645298
10581.634715,-3849.070898,-7698.141797,-80286.808190
10581.637280,-11695.253884,-8438.347739,-78294.959896
10581.639846,-9178.553681,-6365.771101,-77835.302597
10581.642411,2220.617826,-3404.947333,-77988.521696
10581.644977,740.205942,0.000000,-76915.987999
10581.647542,-4441.235652,-1628.453072,-80440.027290
10581.650108,10955.047942,5625.565159,-78141.740796
10581.652673,9770.718434,4441.235652,-76609.549800
10581.655239,0.000000,7254.018232,-75843.454302
10581.657804,4145.153275,1776.494261,-78754.617194
10581.660370,2368.659014,-296.082377,-76915.987999
10581.662935,-1480.411884,3404.947333,-76303.111601
10581.665501,7402.059420,592.164754,-78448.178995
10581.668066,6069.688724,592.164754,-77528.864398
10581.670632,888.247130,4293.194464,-75230.577904
10581.673198,1628.453072,4589.276840,-78294.959896
10581.675763,4589.276840,-444.123565,-78754.617194
10581.678329,-2516.700203,-296.082377,-76149.892501
10581.680894,2960.823768,592.164754,-77682.083497
10581.683460,2812.782580,-1776.494261,-78907.836294
10581.686025,-296.082377,1628.453072,-77528.864398
10581.688591,740.205942,4293.194464,-78907.836294
10581.691156,11991.336260,3108.864956,-76915.987999
10581.693722,5773.606348,6513.812290,-77069.207099
10581.696287,2516.700203,8586.388927,-77988.521696
10581.698853,7846.182985,2664.741391,-79980.369991
10581.701418,-5033.400406,-1332.370696,-77682.083497
10581.703984,-3404.947333,-888.247130,-76915.987999
10581.706549,8438.347739,-1924.535449,-79827.150892
10581.709115,-5329.482782,-5921.647536,-78294.959896
10581.711681,-8142.265362,-8438.347739,-79061.055394
10581.714246,-148.041188,-8142.265362,-77682.083497
10581.716812,-7105.977043,-2960.823768,-75077.358804
10581.719377,-7698.141797,-4737.318029,-75537.016103
10581.721943,-740.205942,-2812.782580,-78754.617194
10581.724510,3849.070898,-4441.235652,-77835.302597
10581.727077,-8882.471304,444.123565,-74770.920605
10581.729645,-5921.647536,-3552.988522,-78907.836294
10581.732212,-444.123565,-6365.771101,-76609.549800
10581.734779,-3701.029710,-5329.482782,-76609.549800
10581.737347,-444.123565,-1036.288319,-78448.178995
10581.739914,6365.771101,-888.247130,-78601.398095
10581.742481,2516.700203,-8438.347739,-77835.302597
10581.745048,-10807.006753,-4589.276840,-75537.016103
10581.747616,-3701.029710,-5477.523971,-78754.617194
10581.750183,-9622.677246,-6217.729913,-78294.959896
10581.752750,-14211.954086,-10362.883188,-77835.302597
10581.755318,-3108.864956,-7994.224174,-77988.521696
10581.757885,-1184.329507,-6217.729913,-76456.330700
10581.760452,-3256.906145,296.082377,-76915.987999
10581.763020,-740.205942,-1036.288319,-79673.931792
10581.765587,12435.459826,2220.617826,-78294.959896
10581.768154,6809.894666,7105.977043,-75383.797003
10581.770722,5329.482782,7254.018232,-78294.959896
10581.773289,6069.688724,740.205942,-78907.836294
10581.775856,-2220.617826,-592.164754,-76915.987999
10581.778424,888.247130,3552.988522,-77835.302597
10581.780991,7402.059420,-2220.617826,-79061.055394
10581.783558,2516.700203,1924.535449,-78448.178995
10581.786125,-1332.370696,4441.235652,-76303.111601
10581.788693,-148.041188,3849.070898,-76609.549800
10581.791260,3404.947333,592.164754,-77682.083497
10581.793827,-4441.235652,1184.329507,-77375.645298
10581.796395,7550.100608,592.164754,-78754.617194
10581.798962,2812.782580,1184.329507,-75843.454302
10581.801529,-2368.659014,3701.029710,-77222.426198
10581.804097,5477.523971,2516.700203,-79827.150892
10581.806637,7698.141797,5329.482782,-76915.987999
10581.809176,7254.018232,6365.771101,-77069.207099
10581.811716,10066.800811,9030.512492,-78601.398095
10581.814256,3108.864956,-444.123565,-78141.740796
10581.816796,-7698.141797,444.123565,-76609.549800
10581.819336,4885.359217,-3552.988522,-77682.083497
10581.821876,4589.276840,-2960.823768,-77375.645298
10581.824416,-10658.965565,-6957.935855,-77375.645298
10581.826956,-2368.659014,-6957.935855,-78601.398095
10581.829496,-4737.318029,-10214.842000,-77835.302597
10581.832036,-7105.977043,-3701.029710,-76456.330700
10581.834576,-7698.141797,-3849.070898,-78294.959896
10581.837116,4885.359217,-2812.782580,-78294.959896
10581.839656,-2220.617826,-2664.741391,-76303.111601
10581.842195,-7402.059420,-888.247130,-77835.302597
10581.844735,0.000000,-6217.729913,-79980.369991
10581.847275,-2664.741391,-6217.729913,-76456.330700
10581.849815,-5625.565159,-740.205942,-78448.178995
10581.852355,3552.988522,-4293.194464,-78141.740796
10581.854895,1332.370696,-2368.659014,-78294.959896
10581.857435,-6809.894666,-5477.523971,-78448.178995
10581.859975,-2664.741391,-3404.947333,-77069.207099
10581.862515,-4589.276840,-7550.100608,-77988.521696
10581.865055,-15544.324782,-7254.018232,-77222.426198
10581.867595,-4441.235652,-9770.718434,-78601.398095
10581.870135,-6217.729913,-9622.677246,-76762.768900
10581.872674,-3701.029710,-3552.988522,-75230.577904
10581.875214,1628.453072,-592.164754,-78601.398095
10581.877754,8586.388927,-1036.288319,-79061.055394
10581.880294,4589.276840,5625.565159,-77375.645298
10581.882834,7994.224174,10658.965565,-77682.083497
10581.885374,8142.265362,3701.029710,-78294.959896
10581.887914,-2516.700203,2368.659014,-75843.454302
10581.890454,1776.494261,3404.947333,-77835.302597
10581.892994,5921.647536,-888.247130,-78294.959896
10581.895534,-444.123565,1776.494261,-76609.549800
10581.898074,1628.453072,-296.082377,-78754.617194
10581.900614,6661.853478,5033.400406,-77375.645298
10581.903154,148.041188,592.164754,-77375.645298
10581.905693,-6069.688724,5329.482782,-75843.454302
10581.908243,5921.647536,-1628.453072,-80286.808190
10581.910789,3552.988522,2664.741391,-77682.083497
10581.913336,-5329.482782,1480.411884,-78448.178995
10581.915882,8142.265362,2220.617826,-79367.493593
10581.918428,4145.153275,5329.482782,-76915.987999
10581.920975,5773.606348,5033.400406,-75383.797003
10581.923521,11843.295072,8290.306550,-78754.617194
10581.926067,7698.141797,2960.823768,-77988.521696
10581.928614,-4441.235652,2368.659014,-77069.207099
10581.931160,296.082377,-2812.782580,-79061.055394
10581.933706,8290.306550,-2664.741391,-77222.426198
10581.936252,-10362.883188,-7254.018232,-76762.768900
10581.938799,-2220.617826,-4885.359217,-78141.740796
10581.941345,-5033.400406,-12731.542202,-78294.959896
10581.943891,-6661.853478,-5477.523971,-75996.673402
10581.946438,-9030.512492,-4293.194464,-79214.274493
10581.948984,2960.823768,-1332.370696,-77835.302597
10581.951530,-2960.823768,-3256.906145,-77222.426198
10581.954077,-4145.153275,1184.329507,-76762.768900
10581.956623,2368.659014,-5181.441594,-79367.493593
10581.959169,-2220.617826,-6069.688724,-78294.959896
10581.961716,-7402.059420,-2812.782580,-78448.178995
10581.964262,4589.276840,-1184.329507,-77069.207099
10581.966808,4145.153275,-4589.276840,-79214.274493
10581.969355,-6365.771101,-3552.988522,-77835.302597
10581.971901,-1480.411884,-5773.606348,-79673.931792
10581.974447,-3256.906145,-4293.194464,-75383.797003
10581.976993,-14804.118840,-6957.935855,-76915.987999
10581.979540,-6809.894666,-6957.935855,-78448.178995
10581.982086,-7698.141797,-10807.006753,-76915.987999
10581.984632,-4293.194464,-4589.276840,-75537.016103
10581.987179,3849.070898,-888.247130,-77069.207099
10581.989725,5181.441594,-4293.194464,-79367.493593
10581.992271,4885.359217,7402.059420,-76762.768900
10581.994818,7846.182985,7105.977043,-77988.521696
10581.997364,10066.800811,5477.523971,-77835.302597
10581.999910,-5033.400406,3849.070898,-76456.330700
10582.002457,1924.535449,1924.535449,-79520.712692
10582.005003,4589.276840,-888.247130,-77835.302597
10582.007549,-1628.453072,1332.370696,-77222.426198
10582.010101,1628.453072,-2072.576638,-78754.617194
10582.012653,5181.441594,4589.276840,-79367.493593
10582.015205,888.247130,3256.906145,-76303.111601
10582.017757,-3108.864956,1924.535449,-77222.426198
10582.020309,5181.441594,592.164754,-79520.712692
10582.022860,1776.494261,-444.123565,-79673.931792
10582.025412,-4441.235652,3552.988522,-76915.987999
10582.027964,10362.883188,888.247130,-77835.302597
10582.030516,4293.194464,3256.906145,-77988.521696
10582.033068,8734.430116,4441.235652,-74924.139704
10582.035620,11399.171507,9030.512492,-78601.398095
10582.038172,7994.224174,6365.771101,-77222.426198
10582.040724,-7254.018232,296.082377,-77835.302597
10582.043275,4145.153275,740.205942,-77528.864398
10582.045827,4145.153275,-3404.947333,-77682.083497
10582.048379,-10066.800811,-7698.141797,-76303.111601
10582.050931,-3701.029710,-8290.306550,-77988.521696
10582.053483,-2664.741391,-11251.130318,-77069.207099
10582.056035,-5181.441594,-4293.194464,-75383.797003
10582.058587,-8734.430116,-3552.988522,-77988.521696
10582.061139,2960.823768,-3701.029710,-79520.712692
10582.063690,-2960.823768,-1480.411884,-77375.645298
10582.066242,-5329.482782,2220.617826,-76303.111601
10582.068794,-1480.411884,-4293.194464,-79520.712692
10582.071346,-2220.617826,-3256.906145,-77375.645298
10582.073898,-5181.441594,-6365.771101,-79367.493593
10582.076450,4737.318029,-2368.659014,-77069.207099
10582.079002,5033.400406,-5921.647536,-76149.892501
10582.081554,-10066.800811,-5033.400406,-77835.302597
10582.084105,-1776.494261,-5181.441594,-78294.959896
10582.086657,-4589.276840,-4441.235652,-75843.454302
10582.089209,-17320.819043,-5773.606348,-75230.577904
10582.091761,-5181.441594,-9622.677246,-79827.150892
10582.094313,-5773.606348,-10214.842000,-77682.083497
10582.096865,-1184.329507,-3552.988522,-76303.111601
10582.099417,2072.576638,-1036.288319,-78448.178995
10582.101969,7846.182985,444.123565,-79061.055394
10582.104520,4589.276840,5477.523971,-76303.111601
10582.107072,7105.977043,10362.883188,-76915.987999
10582.109624,7105.977043,5181.441594,-78754.617194
10582.112181,-4441.235652,2220.617826,-78141.740796
10582.114737,2368.659014,2368.659014,-79520.712692
10582.117294,5181.441594,-4737.318029,-76915.987999
10582.119850,0.000000,1332.370696,-76915.987999
10582.122407,4441.235652,-148.041188,-78907.836294
10582.124963,7254.018232,3997.112087,-79673.931792
10582.127520,-2516.700203,3849.070898,-76609.549800
10582.130076,-2516.700203,0.000000,-75690.235202
10582.132633,4293.194464,1628.453072,-79520.712692
10582.135190,1480.411884,2220.617826,-78448.178995
10582.137746,-2664.741391,2072.576638,-77682.083497
10582.140303,10807.006753,4737.318029,-77375.645298
10582.142859,7254.018232,1036.288319,-78141.740796
10582.145416,8438.347739,6809.894666,-75383.797003
10582.147972,9178.553681,7402.059420,-79061.055394
10582.150529,2072.576638,3256.906145,-77988.521696
10582.153085,-6069.688724,1184.329507,-77222.426198
10582.155642,8142.265362,592.164754,-78754.617194
10582.158198,592.164754,-8290.306550,-78448.178995
10582.160755,-9178.553681,-9030.512492,-76456.330700
10582.163311,-8290.306550,-11695.253884,-79214.274493
10582.165868,296.082377,-5625.565159,-77988.521696
10582.168424,-7254.018232,-5329.482782,-77069.207099
10582.170981,-6217.729913,-2516.700203,-77682.083497
10582.173538,-740.205942,888.247130,-78601.398095
10582.176094,-2516.700203,-2812.782580,-75537.016103
10582.178651,-6661.853478,-4441.235652,-75843.454302
10582.181207,-1924.535449,-5921.647536,-79827.150892
10582.183764,444.123565,-3701.029710,-77528.864398
10582.186320,-5477.523971,-5181.441594,-76915.987999
10582.188877,1184.329507,-740.205942,-75996.673402
10582.191433,888.247130,-7254.018232,-78141.740796
10582.193990,-8290.306550,-6957.935855,-76303.111601
10582.196546,-5921.647536,-2664.741391,-76456.330700
10582.199103,-8734.430116,-7994.224174,-76303.111601
10582.201659,-13471.748144,-9326.594869,-77528.864398
10582.204216,-3552.988522,-10066.800811,-77988.521696
10582.206772,5773.606348,-5033.400406,-76609.549800
10582.209329,-4441.235652,-2220.617826,-76149.892501
10582.211886,4589.276840,5625.565159,-77835.302597
10582.214445,9622.677246,6809.894666,-80286.808190
10582.217005,7550.100608,10362.883188,-74617.701505
10582.219565,-1332.370696,6365.771101,-76915.987999
10582.222125,4293.194464,3701.029710,-79214.274493
10582.224685,3256.906145,-1184.329507,-77682.083497
10582.227245,-3108.864956,1184.329507,-77682.083497
10582.229805,9030.512492,-444.123565,-78141.740796
10582.232365,3849.070898,-888.247130,-79520.712692
10582.234925,-3849.070898,5181.441594,-77528.864398
10582.237485,3552.988522,5773.606348,-77069.207099
10582.240044,2960.823768,-1628.453072,-78601.398095
10582.242604,-444.123565,1480.411884,-77682.083497
10582.245164,2072.576638,-592.164754,-79367.493593
10582.247724,9030.512492,4293.194464,-75383.797003
10582.250284,-3404.947333,1036.288319,-77222.426198
10582.252844,15100.201217,5329.482782,-77069.207099
10582.255404,10955.047942,2072.576638,-79061.055394
10582.257964,1776.494261,9918.759623,-74004.825107
10582.260524,-3701.029710,3701.029710,-77988.521696
10582.263084,8882.471304,592.164754,-79520.712692
10582.265644,-1036.288319,-2368.659014,-77222.426198
10582.268203,-9918.759623,-9474.636058,-78601.398095
10582.270763,-2220.617826,-10955.047942,-78448.178995
10582.273323,-6217.729913,-10362.883188,-76762.768900
10582.275883,-6365.771101,-4885.359217,-79520.712692
10582.278443,-1036.288319,-7846.182985,-79673.931792
10582.281003,-4145.153275,-1332.370696,-77528.864398
10582.283563,-6661.853478,444.123565,-76303.111601
10582.286123,-3256.906145,1332.370696,-76609.549800
10582.288683,-592.164754,-5181.441594,-75843.454302
10582.291243,-3701.029710,-5181.441594,-77222.426198
10582.293803,-2072.576638,-3108.864956,-80133.589091
10582.296362,4737.318029,-4737.318029,-75690.235202
10582.298922,-7846.182985,-2664.741391,-74158.044206
10582.301482,2812.782580,-5329.482782,-77835.302597
10582.304042,-5477.523971,-5477.523971,-77375.645298
10582.306602,-14063.912898,-3108.864956,-74924.139704
10582.309162,-10658.965565,-6661.853478,-78448.178995
10582.311722,-5625.565159,-10510.924376,-78907.836294
10582.314282,-4145.153275,-8734.430116,-75843.454302
10582.316845,1332.370696,-148.041188,-77222.426198
10582.319407,3256.906145,-3701.029710,-77375.645298
10582.321970,5033.400406,5477.523971,-77069.207099
10582.324533,7402.059420,8438.347739,-79673.931792
10582.327096,10362.883188,6957.935855,-77528.864398
10582.329659,-1776.494261,3108.864956,-77682.083497
10582.332222,-3701.029710,3404.947333,-77835.302597
10582.334785,6661.853478,-1480.411884,-79061.055394
10582.337347,5921.647536,0.000000,-76609.549800
10582.339910,740.205942,-1924.535449,-79673.931792
10582.342473,8734.430116,888.247130,-80286.808190
10582.345036,0.000000,5477.523971,-77222.426198
10582.347599,-1480.411884,1036.288319,-76456.330700
10582.350162,3404.947333,3404.947333,-77069.207099
10582.352725,8142.265362,2220.617826,-76609.549800
10582.355287,-2664.741391,1332.370696,-75996.673402
10582.357850,5181.441594,6513.812290,-77222.426198
10582.360413,9622.677246,296.082377,-77222.426198
10582.362976,5773.606348,6513.812290,-76609.549800
10582.365539,11399.171507,5921.647536,-78754.617194
10582.368102,1036.288319,6809.894666,-76915.987999
10582.370665,-5181.441594,1184.329507,-77988.521696
10582.373227,5921.647536,1036.288319,-80593.246390
10582.375790,-592.164754,-7402.059420,-77835.302597
10582.378353,-8586.388927,-10658.965565,-74924.139704
10582.380916,-6661.853478,-11695.253884,-78907.836294
10582.383479,296.082377,-8142.265362,-79061.055394
10582.386042,-6957.935855,-5477.523971,-77682.083497
10582.388604,-3997.112087,444.123565,-78294.959896
10582.391167,3849.070898,-4589.276840,-79367.493593
10582.393730,-3849.070898,1776.494261,-75537.016103
10582.396293,-7994.224174,-3701.029710,-75383.797003
10582.398856,888.247130,-4145.153275,-78601.398095
10582.401419,2664.741391,-7254.018232,-78601.398095
10582.403982,-7698.141797,-3108.864956,-77682.083497
10582.406544,3552.988522,-2812.782580,-76609.549800
10582.409107,-3108.864956,-6513.812290,-77528.864398
10582.411670,-7254.018232,-3997.112087,-77528.864398
10582.414233,-5921.647536,-4885.359217,-78754.617194
10582.416796,-12139.377449,-5477.523971,-76303.111601
10582.419361,-14063.912898,-9474.636058,-78294.959896
10582.421927,1924.535449,-7402.059420,-79673.931792
10582.424492,2960.823768,-3849.070898,-77069.207099
10582.427058,-4589.276840,-3997.112087,-76915.987999
10582.429623,8734.430116,7402.059420,-78754.617194
10582.432188,13027.624579,3552.988522,-78907.836294
10582.434754,444.123565,11103.089130,-76762.768900
10582.437319,1332.370696,7105.977043,-78448.178995
10582.439885,3404.947333,-592.164754,-78754.617194
10582.442450,1480.411884,-1776.494261,-78141.740796
10582.445015,592.164754,740.205942,-76762.768900
10582.447581,11547.212695,-3849.070898,-78448.178995
10582.450146,2812.782580,2960.823768,-77682.083497
10582.452712,-7402.059420,2664.741391,-77988.521696
10582.455277,5921.647536,4737.318029,-77069.207099
10582.457843,148.041188,1332.370696,-77835.302597
10582.460408,-1332.370696,888.247130,-79673.931792
10582.462973,6217.729913,2960.823768,-79980.369991
10582.465539,6809.894666,3701.029710,-75690.235202
10582.468104,4737.318029,4145.153275,-76456.330700
10582.470670,11991.336260,7105.977043,-79061.055394
10582.473235,7698.141797,4885.359217,-78141.740796
10582.475800,-3256.906145,5625.565159,-75230.577904
10582.478366,1628.453072,1776.494261,-78907.836294
10582.480931,4441.235652,-148.041188,-78754.617194
10582.483497,-12731.542202,-10510.924376,-78294.959896
10582.486062,-8438.347739,-10066.800811,-77069.207099
10582.488628,148.041188,-13619.789333,-78754.617194
10582.491193,-5329.482782,-5921.647536,-77835.302597
10582.493758,-6957.935855,-5921.647536,-78907.836294
10582.496324,3552.988522,-2960.823768,-77682.083497
10582.498889,-4293.194464,-740.205942,-77069.207099
10582.501455,-2812.782580,2664.741391,-77222.426198
10582.504020,-148.041188,-3404.947333,-78141.740796
10582.506585,-4145.153275,-5477.523971,-75996.673402
10582.509151,-5329.482782,-4293.194464,-78294.959896
10582.511716,592.164754,-1036.288319,-78601.398095
10582.514282,-592.164754,-3701.029710,-75843.454302
10582.516847,-6069.688724,-6809.894666,-78141.740796
10582.519413,-3108.864956,-5625.565159,-78601.398095
10582.521980,-9918.759623,-5477.523971,-76915.987999
10582.524547,-17024.736666,-4145.153275,-77682.083497
10582.527114,-2072.576638,-11991.336260,-80593.246390
10582.529681,148.041188,-5921.647536,-78294.959896
10582.532248,-5033.400406,-3701.029710,-75537.016103
10582.534815,7698.141797,2960.823768,-76609.549800
10582.537382,11695.253884,4589.276840,-77375.645298
10582.539949,4441.235652,10214.842000,-77222.426198
10582.542516,2220.617826,9770.718434,-78754.617194
10582.545083,4441.235652,3108.864956,-76456.330700
10582.547650,-4589.276840,1332.370696,-75996.673402
10582.550217,5625.565159,-296.082377,-79061.055394
10582.552784,5773.606348,-2516.700203,-77375.645298
10582.555351,7846.182985,-1924.535449,-78601.398095
10582.557918,-3108.864956,2072.576638,-78754.617194
10582.560485,5329.482782,5329.482782,-77528.864398
10582.563052,-1036.288319,1480.411884,-76762.768900
10582.565619,-1480.411884,2960.823768,-77835.302597
10582.568186,8290.306550,1776.494261,-79520.712692
10582.570753,-444.123565,2072.576638,-77835.302597
10582.573320,3701.029710,4737.318029,-78754.617194
10582.575887,13027.624579,4737.318029,-79673.931792
10582.578454,12139.377449,4293.194464,-78907.836294
10582.581021,888.247130,6365.771101,-76149.892501
10582.583588,-148.041188,2368.659014,-77835.302597
10582.586155,6957.935855,296.082377,-78754.617194
10582.588722,-11103.089130,-10807.006753,-77069.207099
10582.591289,-5329.482782,-7550.100608,-75996.673402
10582.593856,-1036.288319,-14952.160028,-78448.178995
10582.596423,-6809.894666,-7550.100608,-75690.235202
10582.598990,-6217.729913,-6957.935855,-79214.274493
10582.601557,2220.617826,-1628.453072,-78601.398095
10582.604124,-2516.700203,740.205942,-76149.892501
10582.606691,-9030.512492,4293.194464,-75537.016103
10582.609258,-3849.070898,-3108.864956,-79061.055394
10582.611825,1924.535449,-5329.482782,-77835.302597
10582.614392,-7254.018232,-2960.823768,-78907.836294
10582.616959,2516.700203,-3552.988522,-79061.055394
10582.619526,740.205942,-6513.812290,-78601.398095
10582.622093,-7402.059420,-2812.782580,-76303.111601
10582.624662,-5477.523971,-5625.565159,-79061.055394
10582.627230,-8142.265362,-8438.347739,-77528.864398
10582.629798,-16728.654289,-7254.018232,-76609.549800
10582.632367,-3701.029710,-7698.141797,-78907.836294
10582.634935,-296.082377,-7846.182985,-77835.302597
10582.637503,-5329.482782,-3849.070898,-75383.797003
10582.640072,7698.141797,1332.370696,-77682.083497
10582.642640,12879.583391,6957.935855,-76762.768900
10582.645209,5329.482782,10955.047942,-76456.330700
10582.647777,-1776.494261,9474.636058,-77835.302597
10582.650345,4145.153275,3552.988522,-78601.398095
10582.652914,-888.247130,888.247130,-77835.302597
10582.655482,1332.370696,-592.164754,-77988.521696
10582.658050,11251.130318,-3108.864956,-78754.617194
10582.660619,2072.576638,148.041188,-79673.931792
10582.663187,-3701.029710,3404.947333,-78294.959896
10582.665755,5033.400406,-1036.288319,-78448.178995
10582.668324,1628.453072,2220.617826,-77528.864398
10582.670892,-1184.329507,2368.659014,-74617.701505
10582.673461,4885.359217,3997.112087,-79061.055394
10582.676029,7550.100608,3701.029710,-77069.207099
10582.678597,2368.659014,2220.617826,-77528.864398
10582.681166,15100.201217,6661.853478,-77682.083497
10582.683734,6957.935855,3701.029710,-77222.426198
10582.686302,-1332.370696,10066.800811,-75996.673402
10582.688871,2960.823768,296.082377,-78141.740796
10582.691439,5773.606348,-2072.576638,-79367.493593
10582.694008,-15100.201217,-9770.718434,-78754.617194
10582.696576,-4737.318029,-9326.594869,-76915.987999
10582.699144,-3997.112087,-16136.489536,-78448.178995
10582.701713,-5477.523971,-7254.018232,-75843.454302
10582.704281,-4737.318029,-6661.853478,-80899.684589
10582.706849,2664.741391,-1332.370696,-78448.178995
10582.709418,-8290.306550,-2516.700203,-77375.645298
10582.711986,-740.205942,4145.153275,-76915.987999
10582.714554,2220.617826,-3256.906145,-77835.302597
10582.717123,-592.164754,-6661.853478,-77222.426198
10582.719691,-3997.112087,-6069.688724,-78448.178995
10582.722260,2960.823768,-3256.906145,-79673.931792
10582.724828,-1924.535449,-5033.400406,-76915.987999
10582.727397,-7698.141797,-4441.235652,-77682.083497
10582.729966,-2072.576638,-6661.853478,-79061.055394
10582.732535,-12287.418637,-7402.059420,-77835.302597
10582.735104,-14656.077652,-5625.565159,-77069.207099
10582.737672,0.000000,-5477.523971,-79367.493593
10582.740241,2072.576638,-7254.018232,-78754.617194
10582.742810,-4885.359217,-2960.823768,-75383.797003
10582.745379,11399.171507,6365.771101,-76762.768900
10582.747948,11399.171507,6069.688724,-79214.274493
10582.750517,1924.535449,11103.089130,-77682.083497
10582.753086,3701.029710,9178.553681,-79214.274493
10582.755655,888.247130,6809.894666,-75690.235202
10582.758224,-888.247130,148.041188,-75996.673402
10582.760793,2664.741391,-2664.741391,-78294.959896
10582.763362,9770.718434,-3108.864956,-78754.617194
10582.765931,2664.741391,296.082377,-77375.645298
10582.768499,0.000000,740.205942,-79214.274493
10582.771068,3701.029710,0.000000,-78448.178995
10582.773637,1332.370696,6809.894666,-75690.235202
10582.776206,-1184.329507,2368.659014,-78141.740796
10582.778775,11843.295072,4441.235652,-78141.740796
10582.781344,5033.400406,4441.235652,-77835.302597
10582.783913,4293.194464,5181.441594,-75996.673402
10582.786482,10510.924376,3404.947333,-80746.465489
10582.789051,4737.318029,5477.523971,-76456.330700
10582.791620,-3108.864956,6513.812290,-76456.330700
10582.794189,9030.512492,3108.864956,-78294.959896
10582.796758,-5773.606348,-4441.235652,-79061.055394
10582.799326,-11991.336260,-7254.018232,-77528.864398
10582.801895,-2812.782580,-15396.283594,-78601.398095
10582.804464,2072.576638,-14211.954086,-78601.398095
10582.807033,-11251.130318,-7550.100608,-77069.207099
10582.809602,1776.494261,-2664.741391,-79827.150892
10582.812171,-444.123565,-1332.370696,-76609.549800
10582.814740,-7402.059420,3552.988522,-74924.139704
10582.817309,-3997.112087,296.082377,-78448.178995
10582.819878,3552.988522,-5329.482782,-77375.645298
10582.822447,-6661.853478,-5921.647536,-76915.987999
10582.825016,2516.700203,-2220.617826,-77375.645298
10582.827585,1480.411884,-4737.318029,-78448.178995
10582.830154,-4441.235652,-6661.853478,-76609.549800
10582.832724,-11103.089130,-5921.647536,-78294.959896
10582.835294,-3849.070898,-5625.565159,-79061.055394
10582.837864,-12435.459826,-5033.400406,-77835.302597
10582.840433,-9326.594869,-5625.565159,-78601.398095
10582.843003,5033.400406,-8290.306550,-79827.150892
10582.845573,-3404.947333,-4145.153275,-77375.645298
10582.848143,4589.276840,1332.370696,-77682.083497
10582.850712,10955.047942,6661.853478,-78754.617194
10582.853282,9770.718434,9622.677246,-78448.178995
10582.855852,-3552.988522,10510.924376,-76609.549800
10582.858422,1776.494261,5033.400406,-77528.864398
10582.860991,2368.659014,1184.329507,-76456.330700
10582.863561,-2664.741391,-888.247130,-76762.768900
10582.866131,10658.965565,-1924.535449,-78907.836294
10582.868701,7105.977043,-3404.947333,-78141.740796
10582.871270,-4589.276840,3404.947333,-76303.111601
10582.873840,-444.123565,6809.894666,-77988.521696
10582.876410,3404.947333,-1924.535449,-79061.055394
10582.878980,1776.494261,3997.112087,-77528.864398
10582.881550,1776.494261,3849.070898,-77222.426198
10582.884119,12731.542202,2072.576638,-78907.836294
10582.886689,2960.823768,4145.153275,-77222.426198
10582.889259,10510.924376,5329.482782,-78907.836294
10582.891829,7105.977043,148.041188,-78294.959896
10582.894398,740.205942,4737.318029,-76456.330700
10582.896968,2368.659014,5921.647536,-76915.987999
10582.899538,-2220.617826,-5329.482782,-79673.931792
10582.902108,-5773.606348,-10362.883188,-77682.083497
10582.904677,-13323.706956,-11251.130318,-77682.083497
10582.907247,1628.453072,-12287.418637,-76456.330700
10582.909817,-5477.523971,-10362.883188,-77835.302597
10582.912387,-5477.523971,-1332.370696,-78141.740796
10582.914956,4145.153275,-1776.494261,-79827.150892
10582.917526,-1036.288319,2516.700203,-76303.111601
10582.920096,-10510.924376,-148.041188,-76762.768900
10582.922666,-296.082377,-1924.535449,-78907.836294
10582.925235,1036.288319,-5625.565159,-77682.083497
10582.927805,-7105.977043,-6661.853478,-76456.330700
10582.930375,444.123565,-1924.535449,-78294.959896
10582.932918,-2960.823768,-8438.347739,-78448.178995
10582.935459,-13027.624579,-5329.482782,-75843.454302
10582.938000,-9030.512492,-7550.100608,-79520.712692
10582.940541,-3108.864956,-7254.018232,-77988.521696
10582.943083,-8586.388927,-6217.729913,-77528.864398
10582.945624,-592.164754,-4441.235652,-78754.617194
10582.948165,2516.700203,-9474.636058,-78448.178995
10582.950706,8882.471304,2516.700203,-75230.577904
10582.953248,7698.141797,8142.265362,-77528.864398
10582.955789,11251.130318,8142.265362,-80133.589091
10582.958330,-2812.782580,10955.047942,-75537.016103
10582.960871,-592.164754,7846.182985,-75996.673402
10582.963413,4145.153275,444.123565,-78601.398095
10582.965954,4589.276840,-2516.700203,-76456.330700
10582.968495,-1924.535449,-888.247130,-77528.864398
10582.971036,6957.935855,740.205942,-79061.055394
10582.973578,-1184.329507,0.000000,-78754.617194
10582.976119,-5773.606348,6217.729913,-76149.892501
10582.978660,4145.153275,1036.288319,-78907.836294
10582.981201,3701.029710,4885.359217,-75996.673402
10582.983742,1628.453072,2664.741391,-77222.426198
10582.986284,9178.553681,5625.565159,-78294.959896
10582.988825,12731.542202,2812.782580,-78754.617194
10582.991366,148.041188,5773.606348,-76915.987999
10582.993907,-1184.329507,7550.100608,-76456.330700
10582.996449,10362.883188,1628.453072,-78448.178995
10582.998990,2072.576638,2960.823768,-75996.673402
10583.001531,-15544.324782,-8734.430116,-79061.055394
10583.004072,-1480.411884,-13175.665768,-78294.959896
10583.006614,-9770.718434,-14063.912898,-75690.235202
10583.009155,-6513.812290,-7846.182985,-75230.577904
10583.011696,-1628.453072,-5477.523971,-79980.369991
10583.014237,1332.370696,-740.205942,-77528.864398
10583.016779,-8882.471304,888.247130,-76609.549800
10583.019320,-5477.523971,5773.606348,-76456.330700
10583.021861,-1776.494261,-7846.182985,-78448.178995
10583.024402,-5181.441594,-2812.782580,-75383.797003
10583.026944,740.205942,-5625.565159,-79673.931792
10583.029485,296.082377,-6661.853478,-78448.178995
10583.032026,-5329.482782,-5181.441594,-77069.207099
10583.034573,-10362.883188,-9178.553681,-79061.055394
10583.037121,-5033.400406,-5625.565159,-78601.398095
10583.039668,-11991.336260,-5477.523971,-75537.016103
10583.042215,-6513.812290,-3552.988522,-78294.959896
10583.044762,3849.070898,-10066.800811,-81052.903688
10583.047310,-5477.523971,-5477.523971,-76456.330700
10583.049857,7698.141797,444.123565,-77222.426198
10583.052404,14063.912898,5921.647536,-77069.207099
10583.054951,10362.883188,13175.665768,-77222.426198
10583.057498,-3997.112087,9770.718434,-78141.740796
10583.060046,4293.194464,6365.771101,-77835.302597
10583.062593,-148.041188,3552.988522,-76609.549800
10583.065140,-1332.370696,148.041188,-76609.549800
10583.067687,9030.512492,-3552.988522,-80593.246390
10583.070235,6809.894666,-2960.823768,-77528.864398
10583.072782,-4293.194464,2516.700203,-78448.178995
10583.075329,-1480.411884,4589.276840,-77069.207099
10583.077876,6809.894666,296.082377,-76762.768900
10583.080424,-2960.823768,2516.700203,-77528.864398
10583.082971,6661.853478,5477.523971,-79520.712692
10583.085518,11843.295072,1036.288319,-78141.740796
10583.088065,5033.400406,3849.070898,-74770.920605
10583.090612,7254.018232,4441.235652,-79367.493593
10583.093160,1776.494261,888.247130,-77069.207099
10583.095707,2072.576638,4293.194464,-74617.701505
10583.098254,-1628.453072,2960.823768,-78601.398095
10583.100801,-3997.112087,-7698.141797,-80133.589091
10583.103349,-10362.883188,-13175.665768,-77222.426198
10583.105896,-10658.965565,-12583.501014,-77835.302597
10583.108443,1036.288319,-10807.006753,-77835.302597
10583.110990,-3997.112087,-6513.812290,-77835.302597
10583.113538,-2368.659014,-1332.370696,-79520.712692
10583.116090,2664.741391,592.164754,-78294.959896
10583.118642,-9474.636058,2516.700203,-75843.454302
10583.121194,-5773.606348,148.041188,-77375.645298
10583.123746,2368.659014,-7550.100608,-80899.684589
10583.126298,148.041188,-5773.606348,-77835.302597
10583.128850,-4589.276840,-4589.276840,-75690.235202
10583.131403,-3108.864956,-5921.647536,-78448.178995
10583.133955,-3256.906145,-9178.553681,-77528.864398
10583.136507,-17320.819043,-5033.400406,-76762.768900
10583.139059,-6513.812290,-6217.729913,-77988.521696
10583.141611,-3108.864956,-5033.400406,-75383.797003
10583.144163,-3849.070898,-4737.318029,-77222.426198
10583.146715,-2812.782580,-5329.482782,-78294.959896
10583.149268,14063.912898,-2812.782580,-77988.521696
10583.151820,5329.482782,7550.100608,-76915.987999
10583.154372,9178.553681,13027.624579,-78141.740796
10583.156924,2960.823768,7402.059420,-78907.836294
10583.159476,-2960.823768,6809.894666,-75230.577904
10583.162028,-148.041188,3997.112087,-78907.836294
10583.164580,7402.059420,-888.247130,-77069.207099
10583.167133,5477.523971,-4589.276840,-79061.055394
10583.169685,1628.453072,148.041188,-78448.178995
10583.172237,444.123565,-1480.411884,-79980.369991
10583.174789,1480.411884,5181.441594,-76303.111601
10583.177341,-6069.688724,2664.741391,-78754.617194
10583.179893,11695.253884,1924.535449,-78448.178995
10583.182445,4441.235652,5477.523971,-76915.987999
10583.184998,4145.153275,5625.565159,-78294.959896
10583.187550,16580.613101,5329.482782,-78448.178995
10583.190102,3701.029710,2516.700203,-77988.521696
10583.192654,-2072.576638,5181.441594,-75230.577904
10583.195206,6365.771101,3849.070898,-77682.083497
10583.197758,4737.318029,888.247130,-76149.892501
10583.200310,-14804.118840,-9030.512492,-77835.302597
10583.202863,-7698.141797,-10955.047942,-78601.398095
10583.205415,-5033.400406,-17468.860231,-77222.426198
10583.207967,-7105.977043,-7254.018232,-74158.044206
10583.210519,-444.123565,-7254.018232,-78601.398095
10583.213071,5033.400406,148.041188,-79673.931792
10583.215623,-4441.235652,1036.288319,-77222.426198
10583.218151,-9918.759623,3701.029710,-77988.521696
10583.220678,592.164754,-3256.906145,-78294.959896
10583.223205,-888.247130,-6513.812290,-78448.178995
10583.225733,-1776.494261,-3552.988522,-77988.521696
10583.228260,2072.576638,-7550.100608,-78754.617194
10583.230787,-5181.441594,-4885.359217,-76762.768900
10583.233315,-11991.336260,-7254.018232,-76609.549800
10583.235842,-8882.471304,-6661.853478,-78294.959896
10583.238369,-6957.935855,-7698.141797,-76915.987999
10583.240897,-7254.018232,-4293.194464,-75996.673402
10583.243424,3108.864956,-5181.441594,-79673.931792
10583.245951,-1036.288319,-5773.606348,-78294.959896
10583.248478,7846.182985,4885.359217,-75077.358804
10583.251006,13175.665768,5921.647536,-79214.274493
10583.253533,6957.935855,13027.624579,-77222.426198
10583.256060,-4145.153275,8734.430116,-77069.207099
10583.258588,2664.741391,7402.059420,-77069.207099
10583.261115,3997.112087,-2368.659014,-77682.083497
10583.263642,3108.864956,-4737.318029,-76456.330700
10583.266170,3256.906145,296.082377,-79980.369991
10583.268697,9030.512492,-4145.153275,-78601.398095
10583.271224,-7402.059420,2664.741391,-77222.426198
10583.273752,4293.194464,3552.988522,-78294.959896
10583.276279,3256.906145,2072.576638,-78141.740796
10583.278806,4441.235652,5477.523971,-77069.207099
10583.281334,3849.070898,5033.400406,-77375.645298
10583.283861,16580.613101,5033.400406,-79520.712692
10583.286388,5921.647536,5181.441594,-76456.330700
10583.288916,-2368.659014,4885.359217,-78448.178995
10583.291443,10362.883188,2368.659014,-78141.740796
10583.293970,4589.276840,4885.359217,-76456.330700
10583.296498,-8734.430116,-888.247130,-77835.302597
10583.299025,-8586.388927,-9918.759623,-78448.178995
10583.301552,-6809.894666,-16876.695478,-76762.768900
10583.304080,-9622.677246,-9326.594869,-75230.577904
10583.306607,-1036.288319,-8142.265362,-79367.493593
10583.309134,296.082377,-2960.823768,-78754.617194
10583.311662,-7105.977043,296.082377,-77222.426198
10583.314189,-5477.523971,5477.523971,-75996.673402
10583.316716,-3108.864956,148.041188,-76149.892501
10583.319253,-3997.112087,-8734.430116,-77988.521696
10583.321789,-5181.441594,-5625.565159,-80286.808190
10583.324325,7402.059420,-6217.729913,-77682.083497
10583.326861,-7994.224174,-6809.894666,-75690.235202
10583.329397,-7846.182985,-7550.100608,-79061.055394
10583.331933,-8290.306550,-9474.636058,-77988.521696
10583.334470,-14063.912898,-7550.100608,-76915.987999
10583.337006,-6365.771101,-1776.494261,-77222.426198
10583.339542,4589.276840,-9178.553681,-79673.931792
10583.342078,-6365.771101,-4885.359217,-76609.549800
10583.344614,6217.729913,3552.988522,-75383.797003
10583.347150,13619.789333,5773.606348,-77988.521696
10583.349687,6957.935855,14508.036463,-76456.330700
10583.352223,-2812.782580,9030.512492,-78294.959896
10583.354759,2664.741391,6513.812290,-78601.398095
10583.357295,1332.370696,2960.823768,-76915.987999
10583.359831,1036.288319,-1924.535449,-77222.426198
10583.362367,8290.306550,-3997.112087,-80440.027290
10583.364904,5181.441594,1036.288319,-77375.645298
10583.367440,-5477.523971,0.000000,-77222.426198
10583.369976,-3256.906145,4589.276840,-79061.055394
10583.372512,8882.471304,888.247130,-76149.892501
10583.375048,-2072.576638,2812.782580,-77375.645298
10583.377584,10066.800811,7105.977043,-78754.617194
10583.380121,14359.995275,2516.700203,-77682.083497
10583.382657,4145.153275,7550.100608,-75077.358804
10583.385193,4293.194464,3256.906145,-79061.055394
10583.387729,5921.647536,1332.370696,-76762.768900
10583.390265,3404.947333,3849.070898,-76456.330700
10583.392802,-10214.842000,-3849.070898,-78601.398095
10583.395338,-4589.276840,-10658.965565,-77835.302597
10583.397874,-10066.800811,-15544.324782,-76456.330700
10583.400410,-8290.306550,-11547.212695,-77835.302597
10583.402946,-296.082377,-8586.388927,-79367.493593
10583.405482,-1184.329507,-3997.112087,-78448.178995
10583.408019,-7846.182985,-444.123565,-77835.302597
10583.410555,-3404.947333,3997.112087,-77222.426198
10583.413091,1036.288319,-4589.276840,-78601.398095
10583.415627,-296.082377,-4293.194464,-77528.864398
10583.418163,-1776.494261,-5033.400406,-79520.712692
10583.420707,1184.329507,-6809.894666,-78754.617194
10583.423251,-6513.812290,-7698.141797,-77222.426198
10583.425795,-9770.718434,-7254.018232,-77528.864398
10583.428338,-6957.935855,-7698.141797,-78601.398095
10583.430882,-12731.542202,-7402.059420,-76762.768900
10583.433426,-4293.194464,-3849.070898,-77222.426198
10583.435970,3552.988522,-5033.400406,-79673.931792
10583.438513,888.247130,-5625.565159,-77375.645298
10583.441057,8142.265362,5921.647536,-77222.426198
10583.443601,9622.677246,9326.594869,-79367.493593
10583.446145,8290.306550,13175.665768,-77222.426198
10583.448689,-6661.853478,8586.388927,-78601.398095
10583.451232,5773.606348,5477.523971,-79061.055394
10583.453776,1036.288319,296.082377,-76762.768900
10583.456320,2368.659014,-592.164754,-77222.426198
10583.458864,9622.677246,-4737.318029,-79520.712692
10583.461407,5477.523971,-1184.329507,-77682.083497
10583.463951,-5329.482782,2072.576638,-76609.549800
10583.466495,148.041188,5181.441594,-79520.712692
10583.469039,5477.523971,-1184.329507,-77069.207099
10583.471583,148.041188,4145.153275,-75537.016103
10583.474126,11251.130318,7698.141797,-78294.959896
10583.476670,11251.130318,3849.070898,-78907.836294
10583.479214,1776.494261,3404.947333,-76609.549800
10583.481758,-2664.741391,2368.659014,-78754.617194
10583.484301,10658.965565,4145.153275,-77222.426198
10583.486845,296.082377,2368.659014,-74770.920605
10583.489389,-13767.830521,-7698.141797,-78907.836294
10583.491933,-4293.194464,-13619.789333,-78601.398095
10583.494477,-8586.388927,-15692.365970,-76609.549800
10583.497020,-5181.441594,-8290.306550,-77835.302597
10583.499564,444.123565,-7698.141797,-79520.712692
10583.502108,3108.864956,-1332.370696,-78294.959896
10583.504652,-7550.100608,740.205942,-75843.454302
10583.507195,-4145.153275,5329.482782,-77528.864398
10583.509739,-3108.864956,-3404.947333,-77222.426198
10583.512283,-740.205942,-4737.318029,-78294.959896
10583.514827,-1924.535449,-6957.935855,-79520.712692
10583.517371,740.205942,-5329.482782,-76456.330700
10583.519914,-12435.459826,-7846.182985,-76609.549800
10583.522464,-3256.906145,-7698.141797,-76609.549800
10583.525013,-9770.718434,-10510.924376,-77835.302597
10583.527563,-8290.306550,-3256.906145,-75230.577904
10583.530113,-2960.823768,-4737.318029,-78601.398095
10583.532662,3404.947333,-6069.688724,-78294.959896
10583.535212,2368.659014,-3701.029710,-76762.768900
10583.537761,10955.047942,9622.677246,-77988.521696
10583.540311,12435.459826,7254.018232,-78294.959896
10583.542860,-2220.617826,13471.748144,-77222.426198
10583.545410,-740.205942,6069.688724,-77375.645298
10583.547959,6365.771101,1628.453072,-77682.083497
10583.550509,2072.576638,-1332.370696,-78294.959896
10583.553059,4293.194464,-3552.988522,-78754.617194
10583.555608,10214.842000,592.164754,-79214.274493
10583.558158,-2220.617826,-2812.782580,-77528.864398
10583.560707,-5773.606348,6069.688724,-75690.235202
10583.563257,7254.018232,1776.494261,-79214.274493
10583.565806,4293.194464,3256.906145,-78601.398095
10583.568356,2664.741391,4441.235652,-76609.549800
10583.570906,13027.624579,6809.894666,-79520.712692
10583.573455,10807.006753,4441.235652,-76609.549800
10583.576005,-5033.400406,5033.400406,-75996.673402
10583.578554,5329.482782,3404.947333,-77988.521696
10583.581104,6809.894666,2812.782580,-77835.302597
10583.583653,-9918.759623,-2664.741391,-76762.768900
10583.586203,-8734.430116,-9918.759623,-77069.207099
10583.588752,-6957.935855,-17616.901420,-76915.987999
10583.591302,-4589.276840,-10066.800811,-76762.768900
10583.593852,-7846.182985,-5625.565159,-79367.493593
10583.596401,5033.400406,-1184.329507,-79520.712692
10583.598951,-1628.453072,-148.041188,-77835.302597
10583.601500,-9474.636058,3701.029710,-77528.864398
10583.604050,-444.123565,-3552.988522,-77528.864398
10583.606599,-1924.535449,-3404.947333,-77375.645298
10583.609149,148.041188,-3404.947333,-79367.493593
10583.611699,2960.823768,-9622.677246,-79827.150892
10583.614248,-3108.864956,-9178.553681,-76456.330700
10583.616798,-17468.860231,-8142.265362,-77069.207099
10583.619347,-9178.553681,-6957.935855,-77682.083497
10583.621897,-6809.894666,-5921.647536,-77222.426198
10583.624451,-6661.853478,-4293.194464,-77835.302597
10583.627006,1776.494261,-3849.070898,-80133.589091
10583.629560,2664.741391,-3997.112087,-78141.740796
10583.632115,7698.141797,6217.729913,-75843.454302
10583.634670,11991.336260,8438.347739,-79673.931792
10583.637224,4293.194464,9474.636058,-79061.055394
10583.639779,-4441.235652,7254.018232,-77835.302597
10583.642333,2072.576638,3849.070898,-77682.083497
10583.644888,6069.688724,-2516.700203,-77375.645298
10583.647442,3849.070898,-3108.864956,-77528.864398
10583.649997,7698.141797,-1776.494261,-80286.808190
10583.652551,740.205942,-1184.329507,-77682.083497
10583.655106,-3997.112087,3552.988522,-73698.386908
10583.657661,444.123565,2368.659014,-76303.111601
10583.660215,13175.665768,4885.359217,-77222.426198
10583.662770,4737.318029,6957.935855,-76915.987999
10583.665324,9326.594869,6513.812290,-78294.959896
10583.667879,13915.871710,5033.400406,-79827.150892
10583.670433,1776.494261,5477.523971,-77069.207099
10583.672988,-2368.659014,2960.823768,-77835.302597
10583.675542,12287.418637,3701.029710,-77528.864398
10583.678097,-7846.182985,-3701.029710,-77682.083497
10583.680652,-12139.377449,-6809.894666,-78601.398095
10583.683206,-8142.265362,-15396.283594,-79520.712692
10583.685761,-1480.411884,-11991.336260,-77528.864398
10583.688315,-8586.388927,-9474.636058,-77528.864398
10583.690870,1480.411884,0.000000,-78754.617194
10583.693424,-1776.494261,-2072.576638,-77375.645298
10583.695979,-5773.606348,-296.082377,-75230.577904
10583.698533,-4145.153275,1628.453072,-76762.768900
10583.701088,3997.112087,-4737.318029,-76762.768900
10583.703643,-6957.935855,-7550.100608,-78448.178995
10583.706197,-2368.659014,-3108.864956,-78141.740796
10583.708752,-2220.617826,-10807.006753,-77222.426198
10583.711306,-12435.459826,-8882.471304,-75537.016103
10583.713861,-14508.036463,-6217.729913,-77988.521696
10583.716415,-3997.112087,-6957.935855,-76915.987999
10583.718970,-7105.977043,-5329.482782,-77682.083497
10583.721524,-444.123565,-2664.741391,-79061.055394
10583.724079,6217.729913,-7105.977043,-78448.178995
10583.726638,13323.706956,5773.606348,-77375.645298
10583.729197,2220.617826,12583.501014,-77069.207099
10583.731755,8882.471304,11547.212695,-79367.493593
10583.734314,-2368.659014,6661.853478,-78294.959896
10583.736873,148.041188,5625.565159,-77222.426198
10583.739432,8142.265362,-2368.659014,-78294.959896
10583.741991,7698.141797,-3552.988522,-77222.426198
10583.744550,2072.576638,-2960.823768,-79367.493593
10583.747108,6661.853478,5181.441594,-77375.645298
10583.749667,2516.700203,2072.576638,-76609.549800
10583.752226,-3997.112087,2812.782580,-77069.207099
10583.754785,8882.471304,5181.441594,-78294.959896
10583.757344,8586.388927,5773.606348,-77988.521696
10583.759903,5477.523971,8290.306550,-75843.454302
10583.762461,9326.594869,5625.565159,-78754.617194
10583.765020,3404.947333,444.123565,-78601.398095
10583.767579,-1628.453072,4145.153275,-75996.673402
10583.770138,6957.935855,3404.947333,-78448.178995
10583.772697,-6809.894666,-10066.800811,-79673.931792
10583.775256,-11399.171507,-12731.542202,-76456.330700
10583.777814,-11251.130318,-16284.530724,-78141.740796
10583.780373,3701.029710,-11991.336260,-77988.521696
10583.782932,-6069.688724,-7402.059420,-77682.083497
10583.785491,-444.123565,888.247130,-78754.617194
10583.788050,592.164754,-1776.494261,-78754.617194
10583.790609,-11843.295072,740.205942,-75077.358804
10583.793167,-1628.453072,148.041188,-76149.892501
10583.795726,2220.617826,-5181.441594,-79827.150892
10583.798285,592.164754,-3256.906145,-77835.302597
10583.800844,-9770.718434,-7846.182985,-77375.645298
10583.803403,-2368.659014,-7698.141797,-77835.302597
10583.805962,-15100.201217,-8142.265362,-77069.207099
10583.808520,-16728.654289,-6365.771101,-77222.426198
10583.811079,-1332.370696,-6661.853478,-79061.055394
10583.813638,296.082377,-3997.112087,-78601.398095
10583.816197,-3108.864956,-3701.029710,-76149.892501
10583.818756,12731.542202,4589.276840,-78294.959896
10583.821315,14508.036463,3108.864956,-77682.083497
10583.823873,3849.070898,12731.542202,-77375.645298
10583.826432,-5477.523971,9770.718434,-78601.398095
10583.828995,7254.018232,4441.235652,-77835.302597
10583.831557,2368.659014,-2368.659014,-76762.768900
10583.834120,4589.276840,-2664.741391,-76762.768900
10583.836682,12435.459826,-1332.370696,-80286.808190
10583.839245,-2516.700203,-4145.153275,-77988.521696
10583.841807,-7698.141797,4737.318029,-75077.358804
10583.844370,1036.288319,3108.864956,-77375.645298
10583.846933,7402.059420,3404.947333,-76915.987999
10583.849495,2812.782580,4145.153275,-77528.864398
10583.852058,15396.283594,9030.512492,-79061.055394
10583.854620,10214.842000,3997.112087,-77375.645298
10583.857183,-2220.617826,4589.276840,-75843.454302
10583.859745,2368.659014,1184.329507,-79061.055394
10583.862308,9178.553681,1480.411884,-76762.768900
10583.864870,-11843.295072,-7254.018232,-77222.426198
10583.867433,-9622.677246,-10510.924376,-76915.987999
10583.869995,-6513.812290,-18209.066173,-77682.083497
10583.872558,-4145.153275,-11547.212695,-74464.482406
10583.875120,-5033.400406,-6069.688724,-78294.959896
10583.877683,4885.359217,-1480.411884,-78448.178995
10583.880246,-4737.318029,-740.205942,-77222.426198
10583.882808,-6217.729913,4441.235652,-76762.768900
10583.885371,-444.123565,-444.123565,-77222.426198
10583.887933,4589.276840,-4589.276840,-78141.740796
10583.890496,-6661.853478,-3849.070898,-80133.589091
10583.893058,2516.700203,-7846.182985,-79367.493593
10583.895621,-7994.224174,-9770.718434,-76915.987999
10583.898183,-18061.024985,-6957.935855,-75537.016103
10583.900746,-9770.718434,-9326.594869,-80286.808190
10583.903308,-5773.606348,-3997.112087,-77069.207099
10583.905871,-3108.864956,-2516.700203,-76915.987999
