#time,accel_x,accel_y,accel_z
12723.665054,-2960.823768,3701.029710,-77069.207099
12723.667592,1480.411884,-3849.070898,-77835.302597
12723.670131,-6661.853478,-2664.741391,-77222.426198
12723.672669,-1184.329507,0.000000,-78754.617194
12723.675207,5329.482782,-740.205942,-78907.836294
12723.677745,1924.535449,-2960.823768,-77835.302597
12723.680283,-1332.370696,-1036.288319,-78754.617194
12723.682821,5329.482782,0.000000,-77069.207099
12723.685360,1480.411884,-4441.235652,-76762.768900
12723.687898,-888.247130,-740.205942,-77835.302597
12723.690436,7105.977043,-5477.523971,-79980.369991
12723.692974,-2220.617826,-1924.535449,-76915.987999
12723.695512,-3404.947333,-5033.400406,-76456.330700
12723.698050,1036.288319,-7402.059420,-77988.521696
12723.700588,5033.400406,-9770.718434,-77222.426198
12723.703127,-6217.729913,-8438.347739,-77988.521696
12723.705665,5477.523971,-6069.688724,-79367.493593
12723.708203,2664.741391,-1628.453072,-77682.083497
12723.710741,-2812.782580,-148.041188,-78141.740796
12723.713279,3997.112087,-592.164754,-77375.645298
12723.715817,2220.617826,1036.288319,-75383.797003
12723.718356,-5625.565159,-2960.823768,-76456.330700
12723.720914,-592.164754,592.164754,-78294.959896
12723.723473,1184.329507,-1628.453072,-77988.521696
12723.726031,-5033.400406,5773.606348,-74464.482406
12723.728590,-3108.864956,4145.153275,-77682.083497
12723.731148,3701.029710,7254.018232,-75843.454302
12723.733707,-7550.100608,1480.411884,-77069.207099
12723.736265,-1480.411884,2960.823768,-77682.083497
12723.738824,1332.370696,-1628.453072,-77988.521696
12723.741382,-148.041188,-444.123565,-77988.521696
12723.743941,-2516.700203,888.247130,-78601.398095
12723.746499,6069.688724,-1332.370696,-78907.836294
12723.749058,-1480.411884,2812.782580,-74770.920605
12723.751616,-3108.864956,8586.388927,-77988.521696
12723.754175,4145.153275,-3108.864956,-79214.274493
12723.756733,-444.123565,1184.329507,-76762.768900
12723.759292,-2220.617826,-4737.318029,-78448.178995
12723.761850,6069.688724,1480.411884,-78294.959896
12723.764409,1776.494261,2368.659014,-75843.454302
12723.766968,-7698.141797,3701.029710,-76915.987999
12723.769526,3701.029710,5329.482782,-79673.931792
12723.772085,2812.782580,7402.059420,-77375.645298
12723.774643,-3997.112087,4885.359217,-77375.645298
12723.777202,5033.400406,-296.082377,-77682.083497
12723.779760,2368.659014,-148.041188,-78294.959896
12723.782319,-3849.070898,1184.329507,-78601.398095
12723.784877,5773.606348,-1184.329507,-78907.836294
12723.787436,4589.276840,148.041188,-76303.111601
12723.789994,-4885.359217,2812.782580,-76303.111601
12723.792553,-2220.617826,6661.853478,-77375.645298
12723.795111,1184.329507,2960.823768,-77375.645298
12723.797670,-6217.729913,3849.070898,-75537.016103
12723.800228,-592.164754,2664.741391,-78601.398095
12723.802787,2516.700203,-2664.741391,-77375.645298
12723.805345,-5477.523971,-3701.029710,-76609.549800
12723.807904,-3404.947333,-5625.565159,-78601.398095
12723.810462,4589.276840,-7550.100608,-80286.808190
12723.813021,740.205942,-2072.576638,-78448.178995
12723.815580,-2368.659014,-2812.782580,-79061.055394
12723.818138,6365.771101,-3997.112087,-77682.083497
12723.820697,592.164754,0.000000,-77835.302597
12723.823268,-2072.576638,592.164754,-78448.178995
12723.825840,4885.359217,-6069.688724,-78907.836294
12723.828411,-2516.700203,-4589.276840,-76456.330700
12723.830983,-6069.688724,-7550.100608,-77835.302597
12723.833554,0.000000,-5625.565159,-77682.083497
12723.836126,2812.782580,-6513.812290,-76915.987999
12723.838697,-4441.235652,-1332.370696,-77528.864398
12723.841269,2664.741391,-6661.853478,-80593.246390
12723.843841,888.247130,3108.864956,-77222.426198
12723.846412,-6069.688724,-592.164754,-77069.207099
12723.848984,2368.659014,-7846.182985,-77528.864398
12723.851555,2812.782580,5921.647536,-76303.111601
12723.854127,-3701.029710,-9178.553681,-75537.016103
12723.856698,-1036.288319,5477.523971,-79827.150892
12723.859270,1184.329507,-3849.070898,-77835.302597
12723.861841,-6957.935855,-7550.100608,-76456.330700
12723.864413,-2072.576638,3404.947333,-76456.330700
12723.866985,592.164754,-8290.306550,-75996.673402
12723.869556,-4293.194464,-3108.864956,-76456.330700
12723.872128,-2516.700203,-11547.212695,-80746.465489
12723.874699,1776.494261,-3701.029710,-78448.178995
12723.877271,-888.247130,-6069.688724,-77682.083497
12723.879842,-888.247130,-2368.659014,-79673.931792
12723.882414,4737.318029,-7105.977043,-77375.645298
12723.884985,444.123565,2516.700203,-75230.577904
12723.887557,-888.247130,-740.205942,-78601.398095
12723.890129,7402.059420,-3108.864956,-78448.178995
12723.892700,0.000000,-9030.512492,-78141.740796
12723.895272,-1184.329507,-5921.647536,-75996.673402
12723.897843,5033.400406,-8438.347739,-77528.864398
12723.900415,1480.411884,-2368.659014,-77988.521696
12723.902986,-2516.700203,1332.370696,-78754.617194
12723.905558,1036.288319,296.082377,-79980.369991
12723.908129,2072.576638,7105.977043,-76149.892501
12723.910701,-6513.812290,6365.771101,-78294.959896
12723.913273,6217.729913,6217.729913,-77988.521696
12723.915844,2960.823768,1776.494261,-77988.521696
12723.918416,-2516.700203,-296.082377,-77835.302597
12723.920987,2072.576638,-2072.576638,-77988.521696
12723.923559,2664.741391,-2220.617826,-77222.426198
12723.926134,-7254.018232,0.000000,-76915.987999
12723.928710,-740.205942,7105.977043,-78141.740796
12723.931286,4441.235652,4441.235652,-80133.589091
12723.933861,1480.411884,5773.606348,-76609.549800
12723.936437,-3997.112087,4589.276840,-78601.398095
12723.939013,9030.512492,-2368.659014,-79827.150892
12723.941588,-444.123565,1776.494261,-78754.617194
12723.944164,-2516.700203,592.164754,-78601.398095
12723.946740,1628.453072,1924.535449,-78601.398095
12723.949315,1480.411884,-2812.782580,-78601.398095
12723.951891,-4145.153275,4589.276840,-74770.920605
12723.954467,1332.370696,1480.411884,-76762.768900
12723.957042,2220.617826,1480.411884,-77682.083497
12723.959618,-5773.606348,-1184.329507,-78141.740796
12723.962194,-888.247130,3552.988522,-77682.083497
12723.964770,1776.494261,5181.441594,-76456.330700
12723.967345,-5033.400406,4145.153275,-75230.577904
12723.969921,-2072.576638,4589.276840,-78448.178995
12723.972497,5181.441594,3256.906145,-78601.398095
12723.975072,-4885.359217,2072.576638,-76762.768900
12723.977648,-1628.453072,2516.700203,-79061.055394
12723.980224,2220.617826,-2220.617826,-77835.302597
12723.982799,-4441.235652,1480.411884,-76609.549800
12723.985375,-2960.823768,-296.082377,-78294.959896
12723.987951,3701.029710,2812.782580,-77682.083497
12723.990526,-5033.400406,2960.823768,-77375.645298
12723.993102,-3552.988522,3108.864956,-78141.740796
12723.995678,7550.100608,3108.864956,-78907.836294
12723.998253,2072.576638,148.041188,-78294.959896
12724.000829,-3256.906145,-2960.823768,-77988.521696
12724.003405,6513.812290,-8290.306550,-78448.178995
12724.005980,1628.453072,-7254.018232,-77682.083497
12724.008556,-2368.659014,-6069.688724,-79520.712692
12724.011132,6809.894666,-9622.677246,-79673.931792
12724.013707,1776.494261,-3108.864956,-77069.207099
12724.016283,-5329.482782,-592.164754,-76456.330700
12724.018859,1184.329507,1776.494261,-76149.892501
12724.021434,3256.906145,-1332.370696,-77069.207099
12724.024010,-5477.523971,-2368.659014,-77069.207099
12724.026586,592.164754,-6957.935855,-78448.178995
12724.029165,1924.535449,-6957.935855,-76303.111601
12724.031744,-5477.523971,-6365.771101,-77069.207099
12724.034323,1036.288319,-5921.647536,-79980.369991
12724.036903,4293.194464,-3404.947333,-77835.302597
12724.039482,-3701.029710,444.123565,-76456.330700
12724.042061,-2812.782580,296.082377,-79367.493593
12724.044641,3552.988522,-7254.018232,-78601.398095
12724.047220,-3701.029710,3404.947333,-74158.044206
12724.049799,-444.123565,-7550.100608,-79980.369991
12724.052378,3849.070898,-740.205942,-76762.768900
12724.054958,-4737.318029,-1776.494261,-76303.111601
12724.057537,-2220.617826,-6661.853478,-78754.617194
12724.060116,5921.647536,-7550.100608,-78448.178995
12724.062696,1184.329507,-6365.771101,-77375.645298
12724.065275,-2368.659014,-5033.400406,-80133.589091
12724.067854,4885.359217,-9474.636058,-81512.560987
12724.070433,2368.659014,-1628.453072,-75690.235202
12724.073013,-3404.947333,-5921.647536,-79367.493593
12724.075592,7698.141797,-2812.782580,-79367.493593
12724.078171,-296.082377,-2220.617826,-76915.987999
12724.080750,296.082377,148.041188,-78141.740796
12724.083330,-740.205942,-4441.235652,-79980.369991
12724.085909,1628.453072,-4293.194464,-75077.358804
12724.088488,-6957.935855,-4885.359217,-74617.701505
12724.091068,-1184.329507,-3552.988522,-77835.302597
12724.093647,3108.864956,-2812.782580,-77528.864398
12724.096226,-5329.482782,-888.247130,-77375.645298
12724.098805,3256.906145,1776.494261,-79367.493593
12724.101385,2960.823768,7846.182985,-77375.645298
12724.103964,-4737.318029,7698.141797,-78294.959896
12724.106543,-1776.494261,5329.482782,-78601.398095
12724.109123,3849.070898,-3256.906145,-77682.083497
12724.111702,-7402.059420,296.082377,-75537.016103
12724.114281,-1628.453072,-4885.359217,-79367.493593
12724.116860,2812.782580,-148.041188,-76915.987999
12724.119440,-3404.947333,-2072.576638,-77835.302597
12724.122019,-2072.576638,7254.018232,-77835.302597
12724.124598,2072.576638,3849.070898,-77222.426198
12724.127177,-5773.606348,6957.935855,-74617.701505
12724.129757,-3108.864956,4441.235652,-80133.589091
12724.132335,6809.894666,-1332.370696,-78754.617194
12724.134914,1776.494261,-2516.700203,-76762.768900
12724.137493,-3108.864956,5773.606348,-77528.864398
12724.140071,6217.729913,-9770.718434,-80899.684589
12724.142650,1036.288319,6513.812290,-77988.521696
12724.145228,-1776.494261,-1184.329507,-77682.083497
12724.147807,7550.100608,-1332.370696,-78754.617194
12724.150386,0.000000,6069.688724,-76149.892501
12724.152964,-6217.729913,-1184.329507,-77528.864398
12724.155543,2516.700203,9178.553681,-79214.274493
12724.158122,1480.411884,-444.123565,-78907.836294
12724.160700,-4589.276840,7994.224174,-75230.577904
12724.163279,-740.205942,148.041188,-79367.493593
12724.165857,4145.153275,6957.935855,-76609.549800
12724.168436,-6661.853478,1776.494261,-77528.864398
12724.171015,6365.771101,1628.453072,-78907.836294
12724.173593,2072.576638,-2072.576638,-77069.207099
12724.176172,-4441.235652,4441.235652,-73851.606007
12724.178751,-1628.453072,-1036.288319,-79673.931792
12724.181329,5625.565159,-444.123565,-77222.426198
12724.183908,-6365.771101,4589.276840,-76915.987999
12724.186486,-148.041188,3997.112087,-77375.645298
12724.189065,1184.329507,-740.205942,-77375.645298
12724.191644,-5477.523971,-6957.935855,-76915.987999
12724.194222,-2368.659014,-5181.441594,-78754.617194
12724.196801,6513.812290,-8438.347739,-80286.808190
12724.199379,-1776.494261,-5921.647536,-76915.987999
12724.201958,-3701.029710,-6809.894666,-78448.178995
12724.204537,5477.523971,-1628.453072,-76762.768900
12724.207115,444.123565,444.123565,-76915.987999
12724.209694,-1628.453072,2072.576638,-79061.055394
12724.212273,7402.059420,-6513.812290,-79827.150892
12724.214851,-1480.411884,148.041188,-75537.016103
12724.217430,-1184.329507,-6217.729913,-77682.083497
12724.220008,1036.288319,-9770.718434,-79061.055394
12724.222587,444.123565,-7550.100608,-77222.426198
12724.225166,-5921.647536,-2072.576638,-78601.398095
12724.227744,1184.329507,-740.205942,-79980.369991
12724.230323,1332.370696,-2960.823768,-76762.768900
12724.232902,-3997.112087,2368.659014,-77375.645298
12724.235480,2072.576638,-3108.864956,-79520.712692
12724.238058,1184.329507,-444.123565,-76915.987999
12724.240636,-4589.276840,-1036.288319,-76303.111601
12724.243214,-740.205942,-4145.153275,-79673.931792
12724.245792,3108.864956,-5033.400406,-77528.864398
12724.248370,-5033.400406,-9770.718434,-75843.454302
12724.250948,-1776.494261,-3849.070898,-76762.768900
12724.253526,888.247130,-9770.718434,-78601.398095
12724.256104,-4737.318029,-2664.741391,-76456.330700
12724.258682,-2220.617826,-5477.523971,-77988.521696
12724.261260,2664.741391,-1628.453072,-76762.768900
12724.263838,-7550.100608,-2368.659014,-76915.987999
12724.266416,-2664.741391,-2220.617826,-77222.426198
12724.268994,6365.771101,-7105.977043,-79214.274493
12724.271572,2368.659014,-3701.029710,-75537.016103
12724.274150,-1036.288319,-4737.318029,-78601.398095
12724.276728,5773.606348,-5329.482782,-79520.712692
12724.279306,-1184.329507,-2516.700203,-77528.864398
12724.281884,-2812.782580,-1332.370696,-79061.055394
12724.284462,3849.070898,-740.205942,-77835.302597
12724.287040,-4589.276840,8290.306550,-77528.864398
12724.289618,-6661.853478,8142.265362,-77682.083497
12724.292196,3256.906145,5625.565159,-79367.493593
12724.294774,4293.194464,148.041188,-77835.302597
12724.297352,-4737.318029,148.041188,-78448.178995
12724.299930,4441.235652,-2368.659014,-79061.055394
12724.302508,1924.535449,-1924.535449,-77069.207099
12724.305086,-6217.729913,740.205942,-76915.987999
12724.307664,7698.141797,4885.359217,-78448.178995
12724.310242,3849.070898,4885.359217,-76609.549800
12724.312820,-7550.100608,7994.224174,-75843.454302
12724.315398,-740.205942,296.082377,-79673.931792
12724.317976,1924.535449,148.041188,-77682.083497
12724.320554,-4885.359217,-1924.535449,-76609.549800
12724.323132,-2220.617826,592.164754,-78448.178995
12724.325710,1776.494261,-1628.453072,-75537.016103
12724.328288,-6217.729913,-2812.782580,-76609.549800
12724.330866,0.000000,2812.782580,-77835.302597
12724.333444,6069.688724,1480.411884,-77988.521696
12724.336022,-148.041188,888.247130,-77222.426198
12724.338600,-2812.782580,4441.235652,-78448.178995
12724.341177,7846.182985,-740.205942,-77835.302597
12724.343755,-1480.411884,8290.306550,-76915.987999
12724.346332,-2960.823768,2368.659014,-79827.150892
12724.348909,1628.453072,7105.977043,-78601.398095
12724.351487,2368.659014,1036.288319,-78294.959896
12724.354064,-5773.606348,888.247130,-77988.521696
12724.356642,-2516.700203,148.041188,-79827.150892
12724.359219,3108.864956,-1776.494261,-76762.768900
12724.361797,-3256.906145,2072.576638,-75996.673402
12724.364374,-2368.659014,2220.617826,-78907.836294
12724.366952,5033.400406,3404.947333,-78294.959896
12724.369529,-6957.935855,3256.906145,-75690.235202
12724.372107,-2072.576638,-148.041188,-76456.330700
12724.374684,2368.659014,-8142.265362,-77069.207099
12724.377262,-4589.276840,-7402.059420,-76456.330700
12724.379839,-1924.535449,-7846.182985,-79214.274493
12724.382417,6365.771101,-10807.006753,-80133.589091
12724.384994,-888.247130,-2960.823768,-77375.645298
12724.387572,-2516.700203,-148.041188,-77835.302597
12724.390149,6957.935855,-740.205942,-78754.617194
12724.392727,-444.123565,-444.123565,-76762.768900
12724.395304,-2664.741391,-888.247130,-78448.178995
12724.397882,4589.276840,-6365.771101,-78448.178995
12724.400459,2368.659014,-6809.894666,-76149.892501
12724.403037,-5625.565159,-6513.812290,-77682.083497
12724.405614,1480.411884,-9770.718434,-79520.712692
12724.408192,1924.535449,-3997.112087,-77222.426198
12724.410769,-5329.482782,2960.823768,-77222.426198
12724.413346,1776.494261,-1332.370696,-78754.617194
12724.415924,2368.659014,-2220.617826,-77528.864398
12724.418501,-4441.235652,-2516.700203,-76762.768900
12724.421076,3701.029710,-1628.453072,-78294.959896
12724.423651,4737.318029,-5921.647536,-77222.426198
12724.426225,-4441.235652,-4293.194464,-77222.426198
12724.428800,-2072.576638,-7846.182985,-79520.712692
12724.431375,2812.782580,-5773.606348,-74770.920605
12724.433949,-5773.606348,-4441.235652,-75230.577904
12724.436524,-888.247130,-4293.194464,-79827.150892
12724.439098,1184.329507,-6513.812290,-79214.274493
12724.441673,-5181.441594,-1480.411884,-75537.016103
12724.444248,-2516.700203,-444.123565,-79980.369991
12724.446822,6069.688724,-7846.182985,-79061.055394
12724.449397,1628.453072,-1776.494261,-75996.673402
12724.451971,-2220.617826,-5181.441594,-78294.959896
12724.454546,8142.265362,-3849.070898,-79061.055394
12724.457121,-4737.318029,-3108.864956,-77682.083497
12724.459695,-2072.576638,-1332.370696,-78141.740796
12724.462270,4589.276840,-4737.318029,-78141.740796
12724.464845,-2220.617826,5921.647536,-76915.987999
12724.467419,-8586.388927,7846.182985,-77988.521696
12724.469994,6069.688724,6069.688724,-79061.055394
12724.472568,3997.112087,4441.235652,-78141.740796
12724.475143,-1924.535449,2220.617826,-77222.426198
12724.477718,3701.029710,-2072.576638,-78294.959896
12724.480292,2812.782580,-3404.947333,-77222.426198
12724.482867,-4293.194464,296.082377,-76762.768900
12724.485441,7994.224174,1628.453072,-80286.808190
12724.488016,3108.864956,7254.018232,-77375.645298
12724.490591,-5033.400406,7105.977043,-76762.768900
12724.493165,-2812.782580,3404.947333,-77988.521696
12724.495740,2664.741391,-740.205942,-76915.987999
12724.498315,-5921.647536,-444.123565,-76609.549800
12724.500889,0.000000,1332.370696,-77069.207099
12724.503464,1776.494261,-3701.029710,-77375.645298
12724.506038,-6513.812290,-1332.370696,-77375.645298
12724.508613,-1480.411884,592.164754,-79520.712692
12724.511188,2812.782580,5773.606348,-75690.235202
12724.513762,-296.082377,4885.359217,-76609.549800
12724.516337,-1184.329507,5033.400406,-79827.150892
12724.518912,5773.606348,1184.329507,-79827.150892
12724.521486,-296.082377,5625.565159,-76762.768900
12724.523981,-888.247130,3849.070898,-79061.055394
12724.526476,4737.318029,1924.535449,-78448.178995
12724.528971,-1480.411884,3552.988522,-76915.987999
12724.531466,592.164754,1628.453072,-78601.398095
12724.533961,5477.523971,-740.205942,-77835.302597
12724.536455,888.247130,-592.164754,-78141.740796
12724.538950,-4441.235652,740.205942,-77835.302597
12724.541445,2072.576638,1332.370696,-79061.055394
12724.543940,3108.864956,5625.565159,-76609.549800
12724.546435,-4885.359217,3404.947333,-78294.959896
12724.548930,5773.606348,-5329.482782,-79520.712692
12724.551424,296.082377,-4589.276840,-77375.645298
12724.553919,-3108.864956,-6661.853478,-79367.493593
12724.556414,4737.318029,-10214.842000,-79520.712692
12724.558909,3404.947333,-10955.047942,-78294.959896
12724.561404,-8734.430116,-2220.617826,-75230.577904
12724.563899,592.164754,-3256.906145,-77835.302597
12724.566394,3701.029710,1776.494261,-76609.549800
12724.568888,-5329.482782,-2516.700203,-77682.083497
12724.571383,0.000000,-3404.947333,-77835.302597
12724.573878,1480.411884,-5033.400406,-75537.016103
12724.576373,-7994.224174,-8290.306550,-76149.892501
12724.578868,2516.700203,-6661.853478,-77835.302597
12724.581363,4145.153275,-8438.347739,-78448.178995
12724.583857,-2220.617826,444.123565,-77222.426198
12724.586352,-1184.329507,592.164754,-78448.178995
12724.588847,5181.441594,-3404.947333,-78601.398095
12724.591342,-3256.906145,-2368.659014,-77222.426198
12724.593837,-1480.411884,-888.247130,-77069.207099
12724.596332,5625.565159,-5181.441594,-77682.083497
12724.598826,-4885.359217,-6513.812290,-76456.330700
12724.601321,-3552.988522,-8882.471304,-79520.712692
12724.603816,5033.400406,-6661.853478,-77375.645298
12724.606311,1628.453072,-4145.153275,-77988.521696
12724.608806,-2072.576638,-3108.864956,-79061.055394
12724.611301,8142.265362,-5329.482782,-80133.589091
12724.613796,148.041188,-740.205942,-77375.645298
12724.616290,-2664.741391,-296.082377,-78448.178995
12724.618785,5773.606348,-5921.647536,-79367.493593
12724.621280,1628.453072,-5329.482782,-76609.549800
12724.623795,-6809.894666,-5625.565159,-77222.426198
12724.626309,-148.041188,-2664.741391,-76915.987999
12724.628824,3404.947333,-2220.617826,-77069.207099
12724.631338,-3997.112087,-1480.411884,-77222.426198
12724.633853,1924.535449,2220.617826,-80286.808190
12724.636368,2368.659014,7402.059420,-76915.987999
12724.638882,-6661.853478,8438.347739,-77069.207099
12724.641397,3701.029710,7550.100608,-78907.836294
12724.643911,4885.359217,3701.029710,-78448.178995
12724.646426,-3552.988522,-1776.494261,-76915.987999
12724.648941,-2960.823768,-1184.329507,-78754.617194
12724.651455,3404.947333,-3701.029710,-77528.864398
12724.653970,-5181.441594,2516.700203,-77069.207099
12724.656484,-1036.288319,3404.947333,-78294.959896
12724.658999,2812.782580,7994.224174,-75996.673402
12724.661514,-6661.853478,8586.388927,-76915.987999
12724.664028,-2368.659014,4589.276840,-78141.740796
12724.666543,2072.576638,-3404.947333,-79520.712692
12724.669057,148.041188,-1776.494261,-77375.645298
12724.671572,-2516.700203,-1036.288319,-78294.959896
12724.674087,5329.482782,-4441.235652,-79367.493593
12724.676601,-1036.288319,1036.288319,-77682.083497
12724.679116,-888.247130,5477.523971,-77375.645298
12724.681630,6069.688724,-2220.617826,-77835.302597
12724.684145,-592.164754,6217.729913,-76303.111601
12724.686660,-444.123565,6069.688724,-79827.150892
12724.689174,6661.853478,3552.988522,-77835.302597
12724.691689,2220.617826,2072.576638,-77835.302597
12724.694204,-5625.565159,4589.276840,-76456.330700
12724.696718,1332.370696,2220.617826,-77682.083497
12724.699233,2516.700203,1924.535449,-76609.549800
12724.701747,-5477.523971,3997.112087,-77528.864398
12724.704262,4293.194464,-1184.329507,-80286.808190
12724.706777,2516.700203,888.247130,-77222.426198
12724.709291,-5033.400406,2368.659014,-76303.111601
12724.711806,-1184.329507,3552.988522,-79214.274493
12724.714320,4145.153275,-2960.823768,-77528.864398
12724.716835,-5477.523971,-4293.194464,-75537.016103
12724.719350,-2960.823768,-8142.265362,-77835.302597
12724.721864,1036.288319,-8438.347739,-78601.398095
12724.724394,-5181.441594,-7254.018232,-76762.768900
12724.726925,-1628.453072,-6957.935855,-79061.055394
12724.729455,2516.700203,-3701.029710,-76149.892501
12724.731985,-6365.771101,-740.205942,-76456.330700
12724.734515,-2368.659014,1628.453072,-77988.521696
12724.737046,6069.688724,-6661.853478,-79520.712692
12724.739576,444.123565,-2812.782580,-77528.864398
12724.742106,-2812.782580,-7105.977043,-78754.617194
12724.744636,6661.853478,-7105.977043,-78294.959896
12724.747167,-3404.947333,-7550.100608,-76149.892501
12724.749697,-2516.700203,-2812.782580,-78601.398095
12724.752227,3849.070898,-5181.441594,-78601.398095
12724.754757,-3404.947333,592.164754,-77835.302597
12724.757288,-4145.153275,2072.576638,-77682.083497
12724.759818,2220.617826,-3404.947333,-78907.836294
12724.762348,4885.359217,-7846.182985,-77835.302597
12724.764878,-2368.659014,-3404.947333,-76303.111601
12724.767409,-1332.370696,-11103.089130,-79367.493593
12724.769939,3404.947333,-8438.347739,-76762.768900
12724.772469,-5477.523971,-7402.059420,-76456.330700
12724.774999,-592.164754,-592.164754,-78141.740796
12724.777530,1480.411884,-6809.894666,-77682.083497
12724.780060,-6217.729913,0.000000,-76303.111601
12724.782590,-3552.988522,-3552.988522,-79214.274493
12724.785120,7846.182985,-3849.070898,-78141.740796
12724.787651,148.041188,-6957.935855,-77682.083497
12724.790181,-2368.659014,-3849.070898,-78601.398095
12724.792711,3404.947333,-9474.636058,-79673.931792
12724.795241,2220.617826,2516.700203,-76456.330700
12724.797772,-3256.906145,-2220.617826,-78907.836294
12724.800302,7994.224174,4293.194464,-79061.055394
12724.802832,-1776.494261,8290.306550,-76456.330700
12724.805362,-4885.359217,9178.553681,-75690.235202
12724.807893,-296.082377,4441.235652,-78754.617194
12724.810423,4145.153275,0.000000,-77528.864398
12724.812953,-6957.935855,-444.123565,-77988.521696
12724.815483,4145.153275,-2664.741391,-79214.274493
12724.818014,2664.741391,-1628.453072,-76915.987999
12724.820544,-4441.235652,3552.988522,-78294.959896
12724.823074,5033.400406,5033.400406,-78448.178995
12724.825615,3256.906145,5477.523971,-77375.645298
12724.828155,-7994.224174,8142.265362,-75843.454302
12724.830696,-2220.617826,-2072.576638,-77375.645298
12724.833237,2664.741391,-9326.594869,-77375.645298
12724.835777,-4145.153275,6661.853478,-74464.482406
12724.838318,-3552.988522,-9178.553681,-81052.903688
12724.840859,1776.494261,10658.965565,-75996.673402
12724.843399,-7698.141797,-7402.059420,-78448.178995
12724.845940,-888.247130,7402.059420,-76762.768900
12724.848481,5921.647536,5921.647536,-79673.931792
12724.851021,-2072.576638,4293.194464,-76915.987999
12724.853562,-3108.864956,6513.812290,-78601.398095
12724.856102,4885.359217,-2220.617826,-79673.931792
12724.858643,-444.123565,6809.894666,-74770.920605
12724.861184,-1332.370696,-148.041188,-80593.246390
12724.863724,8586.388927,3108.864956,-77528.864398
12724.866265,-3256.906145,-444.123565,-79214.274493
12724.868806,-1036.288319,4145.153275,-77375.645298
12724.871346,2072.576638,296.082377,-79520.712692
12724.873887,3849.070898,7402.059420,-77069.207099
12724.876428,-5773.606348,444.123565,-78754.617194
12724.878968,3701.029710,-5329.482782,-78294.959896
12724.881509,4145.153275,-6661.853478,-76762.768900
12724.884049,-4441.235652,-8142.265362,-77988.521696
12724.886590,6661.853478,-10362.883188,-79214.274493
12724.889131,3997.112087,-8586.388927,-77069.207099
12724.891671,-4441.235652,-3849.070898,-76915.987999
12724.894212,-1184.329507,1628.453072,-77682.083497
12724.896753,1480.411884,-1036.288319,-77222.426198
12724.899293,-4589.276840,-444.123565,-76915.987999
12724.901834,-2220.617826,-4885.359217,-79520.712692
12724.904374,2516.700203,-7550.100608,-76762.768900
12724.906915,-5625.565159,-6661.853478,-75690.235202
12724.909456,148.041188,-12139.377449,-78907.836294
12724.911996,1480.411884,-5773.606348,-77069.207099
12724.914537,-3552.988522,4145.153275,-74924.139704
12724.917078,-1332.370696,1924.535449,-77682.083497
12724.919618,4441.235652,-6069.688724,-78448.178995
12724.922159,-1480.411884,-4145.153275,-77375.645298
12724.924700,-1332.370696,148.041188,-77528.864398
12724.927249,6661.853478,-6957.935855,-77988.521696
12724.929798,-2220.617826,-7254.018232,-77528.864398
12724.932347,-2072.576638,-9030.512492,-80133.589091
12724.934896,4885.359217,-10955.047942,-77069.207099
12724.937445,-2812.782580,-740.205942,-75537.016103
12724.939994,-5329.482782,-1480.411884,-78294.959896
12724.942543,5921.647536,-2516.700203,-80286.808190
12724.945092,2516.700203,-3256.906145,-77682.083497
12724.947641,-2664.741391,-1480.411884,-76456.330700
12724.950190,4145.153275,-6513.812290,-78294.959896
12724.952739,1332.370696,-4441.235652,-76303.111601
12724.955288,-6069.688724,-7402.059420,-79673.931792
12724.957837,7550.100608,-1036.288319,-79214.274493
12724.960386,-296.082377,444.123565,-78141.740796
12724.962935,-4885.359217,6809.894666,-76456.330700
12724.965484,-1628.453072,9622.677246,-78907.836294
12724.968033,2960.823768,6365.771101,-76915.987999
12724.970583,-6217.729913,5773.606348,-76915.987999
12724.973132,1332.370696,-1628.453072,-78907.836294
12724.975681,2368.659014,-2368.659014,-75996.673402
12724.978230,-4441.235652,-3849.070898,-76609.549800
12724.980779,444.123565,-1184.329507,-78141.740796
12724.983328,2960.823768,1776.494261,-78907.836294
12724.985877,-3404.947333,10066.800811,-76762.768900
12724.988426,148.041188,8438.347739,-79367.493593
12724.990975,5477.523971,4293.194464,-78601.398095
12724.993524,-2368.659014,-2072.576638,-77375.645298
12724.996073,-1628.453072,888.247130,-79520.712692
12724.998622,3108.864956,-6661.853478,-77375.645298
12725.001171,-5477.523971,-1036.288319,-75996.673402
12725.003720,-1036.288319,1036.288319,-77528.864398
12725.006269,5181.441594,-2072.576638,-78141.740796
12725.008818,1776.494261,10362.883188,-75383.797003
12725.011367,-5773.606348,5329.482782,-80746.465489
12725.013916,5921.647536,7254.018232,-78294.959896
12725.016466,2220.617826,1184.329507,-77528.864398
12725.019015,-1332.370696,3108.864956,-77682.083497
12725.021564,2960.823768,-1036.288319,-79214.274493
12725.024113,2220.617826,592.164754,-77222.426198
12725.026662,-4441.235652,1332.370696,-77835.302597
12725.029216,-740.205942,1184.329507,-78907.836294
12725.031770,3108.864956,3701.029710,-75230.577904
12725.034325,-2220.617826,7846.182985,-76149.892501
12725.036879,1776.494261,1776.494261,-79367.493593
12725.039433,1924.535449,-3108.864956,-76915.987999
12725.041987,-5773.606348,-7402.059420,-75843.454302
12725.044542,1036.288319,-9918.759623,-76149.892501
12725.047096,4293.194464,-9918.759623,-77528.864398
12725.049650,-5181.441594,-7698.141797,-77528.864398
12725.052204,-2220.617826,-4145.153275,-78907.836294
12725.054759,2812.782580,-2368.659014,-78601.398095
12725.057313,-4293.194464,3256.906145,-76609.549800
12725.059867,-3108.864956,-1184.329507,-79980.369991
12725.062421,3404.947333,-5329.482782,-76762.768900
12725.064976,-5773.606348,-6661.853478,-75537.016103
12725.067530,-444.123565,-6217.729913,-78141.740796
12725.070084,0.000000,-13027.624579,-76762.768900
12725.072638,2368.659014,-2368.659014,-78448.178995
12725.075193,-3404.947333,1036.288319,-78448.178995
12725.077747,5033.400406,-1628.453072,-78754.617194
12725.080301,740.205942,-2368.659014,-78448.178995
12725.082856,-2664.741391,0.000000,-79061.055394
12725.085410,7550.100608,-6661.853478,-78907.836294
12725.087964,444.123565,-5329.482782,-78141.740796
12725.090518,-1924.535449,-9326.594869,-81359.341888
12725.093073,4589.276840,-14063.912898,-79520.712692
12725.095627,2812.782580,-4145.153275,-75383.797003
12725.098181,-6957.935855,-3701.029710,-74158.044206
12725.100735,2516.700203,-148.041188,-78448.178995
12725.103290,2072.576638,-2516.700203,-76762.768900
12725.105844,-3849.070898,1628.453072,-76762.768900
12725.108398,-444.123565,-5477.523971,-78448.178995
12725.110952,3552.988522,-2368.659014,-75690.235202
12725.113507,-7550.100608,-7254.018232,-78907.836294
12725.116061,4145.153275,-5329.482782,-79520.712692
12725.118615,2664.741391,-6957.935855,-79520.712692
12725.121169,-3108.864956,8882.471304,-75230.577904
12725.123724,-2664.741391,7698.141797,-79214.274493
12725.126278,2072.576638,10510.924376,-75843.454302
12725.128832,-6365.771101,5921.647536,-75537.016103
12725.131391,-1184.329507,4885.359217,-77682.083497
12725.133950,2220.617826,-5921.647536,-77835.302597
12725.136508,-6365.771101,-888.247130,-77222.426198
12725.139067,-1184.329507,-6217.729913,-78754.617194
12725.141626,5773.606348,888.247130,-80286.808190
12725.144184,1480.411884,6661.853478,-75690.235202
12725.146743,-4293.194464,7254.018232,-79061.055394
12725.149302,6513.812290,6809.894666,-79061.055394
12725.151860,592.164754,6809.894666,-77988.521696
12725.154419,-1776.494261,-2368.659014,-78448.178995
12725.156978,7105.977043,-7550.100608,-77222.426198
12725.159536,-1184.329507,2072.576638,-77222.426198
12725.162095,-2220.617826,-3256.906145,-75996.673402
12725.164654,148.041188,3404.947333,-78448.178995
12725.167212,1480.411884,7994.224174,-76456.330700
12725.169771,-5921.647536,9474.636058,-77988.521696
12725.172330,0.000000,9326.594869,-78754.617194
12725.174888,3849.070898,4441.235652,-77069.207099
12725.177447,-4885.359217,1776.494261,-75230.577904
12725.180006,-1628.453072,-3849.070898,-78448.178995
12725.182564,2368.659014,-2368.659014,-76149.892501
12725.185123,-5181.441594,-592.164754,-76609.549800
12725.187682,-4737.318029,3256.906145,-78601.398095
12725.190241,7402.059420,5329.482782,-79061.055394
12725.192799,2664.741391,8438.347739,-77222.426198
12725.195358,-3552.988522,0.000000,-77528.864398
12725.197917,5625.565159,-6661.853478,-78448.178995
12725.200475,-148.041188,-8586.388927,-76456.330700
12725.203034,-3404.947333,-8438.347739,-78754.617194
12725.205593,5921.647536,-14952.160028,-80440.027290
12725.208151,1184.329507,-5477.523971,-77375.645298
12725.210710,-6069.688724,-1332.370696,-76303.111601
12725.213269,444.123565,2072.576638,-77375.645298
12725.215827,2220.617826,1184.329507,-75843.454302
12725.218386,-5329.482782,-1332.370696,-76609.549800
12725.220945,-444.123565,-5477.523971,-79520.712692
12725.223503,3108.864956,-7550.100608,-76456.330700
12725.226062,-4441.235652,-9030.512492,-76609.549800
12725.228621,-740.205942,-9770.718434,-78601.398095
12725.231179,296.082377,-5773.606348,-77682.083497
12725.233742,-2516.700203,-444.123565,-76609.549800
12725.236304,-1924.535449,5329.482782,-77528.864398
12725.238867,3256.906145,-6069.688724,-77988.521696
12725.241429,-6809.894666,-5181.441594,-78448.178995
12725.243992,-740.205942,-6365.771101,-78141.740796
12725.246554,3108.864956,-10066.800811,-77682.083497
12725.249117,-5033.400406,-7846.182985,-75843.454302
12725.251679,-1628.453072,-7105.977043,-79367.493593
12725.254241,4441.235652,-3256.906145,-77528.864398
12725.256804,3108.864956,-888.247130,-76609.549800
12725.259366,-3552.988522,-1036.288319,-78907.836294
12725.261929,7105.977043,-4589.276840,-79827.150892
12725.264491,592.164754,-592.164754,-76762.768900
12725.267054,-3404.947333,-3997.112087,-78601.398095
12725.269616,5477.523971,-6661.853478,-79673.931792
12725.272179,1480.411884,-5181.441594,-76609.549800
12725.274741,-2664.741391,0.000000,-78141.740796
12725.277304,-2072.576638,4737.318029,-79061.055394
12725.279866,2960.823768,9918.759623,-76303.111601
12725.282429,-6957.935855,9326.594869,-77835.302597
12725.284991,3404.947333,5329.482782,-77835.302597
12725.287553,3997.112087,2812.782580,-76762.768900
12725.290116,-5625.565159,-1924.535449,-76149.892501
12725.292678,2072.576638,-5625.565159,-80440.027290
12725.295241,3552.988522,148.041188,-76915.987999
12725.297803,-4737.318029,2516.700203,-79367.493593
12725.300366,-1480.411884,7994.224174,-79367.493593
12725.302928,1924.535449,6513.812290,-77682.083497
12725.305491,-4885.359217,2516.700203,-75996.673402
12725.308053,-592.164754,1776.494261,-78294.959896
12725.310616,4441.235652,-1776.494261,-76915.987999
12725.313178,-5625.565159,-1184.329507,-75077.358804
12725.315741,-740.205942,-1332.370696,-79214.274493
12725.318303,592.164754,-5033.400406,-78141.740796
12725.320865,-4441.235652,10807.006753,-74924.139704
12725.323428,-4145.153275,5329.482782,-79980.369991
12725.325990,7698.141797,10066.800811,-78601.398095
12725.328553,-296.082377,4293.194464,-78294.959896
12725.331115,-1924.535449,6809.894666,-77835.302597
12725.333678,5477.523971,-6217.729913,-78601.398095
12725.336242,0.000000,2220.617826,-76149.892501
12725.338806,-2960.823768,-2812.782580,-78907.836294
12725.341370,5773.606348,-148.041188,-78601.398095
12725.343934,1480.411884,5181.441594,-76609.549800
12725.346498,-5921.647536,6365.771101,-76303.111601
12725.349062,0.000000,-1332.370696,-77835.302597
12725.351625,3256.906145,-3701.029710,-76149.892501
12725.354189,-7254.018232,-7105.977043,-77988.521696
12725.356753,3552.988522,-11251.130318,-78294.959896
12725.359317,2812.782580,-12583.501014,-78294.959896
12725.361881,-3404.947333,-8290.306550,-78448.178995
12725.364445,5329.482782,-5033.400406,-78448.178995
12725.367009,2516.700203,-3849.070898,-76456.330700
12725.369573,-5181.441594,3552.988522,-75843.454302
12725.372137,-1628.453072,-3404.947333,-79827.150892
12725.374701,2072.576638,-5477.523971,-77222.426198
12725.377265,-5329.482782,-4145.153275,-75996.673402
12725.379829,-1184.329507,-5477.523971,-78448.178995
12725.382393,592.164754,-15692.365970,-77069.207099
12725.384957,-5181.441594,1036.288319,-75843.454302
12725.387521,-2368.659014,296.082377,-78907.836294
12725.390085,6217.729913,-3552.988522,-79520.712692
12725.392649,0.000000,-2960.823768,-78141.740796
12725.395213,-3256.906145,-3997.112087,-78294.959896
12725.397777,7846.182985,-5773.606348,-77988.521696
12725.400341,-740.205942,-10362.883188,-77682.083497
12725.402905,-2664.741391,-8882.471304,-78601.398095
12725.405469,5477.523971,-9030.512492,-79061.055394
12725.408033,-1776.494261,-3849.070898,-75843.454302
12725.410597,-1332.370696,-592.164754,-77682.083497
12725.413161,2072.576638,-3108.864956,-77835.302597
12725.415725,2516.700203,0.000000,-76456.330700
12725.418289,-6365.771101,-1924.535449,-78141.740796
12725.420853,-148.041188,-4441.235652,-79214.274493
12725.423416,3256.906145,-7402.059420,-76762.768900
12725.425980,-4737.318029,-2960.823768,-77069.207099
12725.428544,2812.782580,2220.617826,-78601.398095
12725.431108,2368.659014,10066.800811,-76915.987999
12725.433672,-6217.729913,11399.171507,-78448.178995
12725.436236,-296.082377,7254.018232,-78754.617194
12725.438802,4589.276840,1776.494261,-76456.330700
12725.441367,-3256.906145,0.000000,-75996.673402
12725.443932,-2812.782580,-3849.070898,-79520.712692
12725.446498,3552.988522,-3256.906145,-77222.426198
12725.449063,-6217.729913,592.164754,-76149.892501
12725.451628,-148.041188,5329.482782,-77682.083497
12725.454194,1332.370696,4589.276840,-77528.864398
12725.456759,-6217.729913,6957.935855,-75843.454302
12725.459324,-3108.864956,5477.523971,-77069.207099
12725.461890,6809.894666,296.082377,-79673.931792
12725.464455,-888.247130,-5033.400406,-78294.959896
12725.467020,-4145.153275,1184.329507,-79673.931792
12725.469586,6661.853478,444.123565,-76456.330700
12725.472151,1036.288319,5181.441594,-76609.549800
12725.474716,-2220.617826,6069.688724,-78601.398095
12725.477282,6809.894666,6809.894666,-78754.617194
12725.479847,1628.453072,4441.235652,-77835.302597
12725.482412,-5329.482782,6957.935855,-76609.549800
12725.484978,888.247130,-296.082377,-79061.055394
12725.487543,2960.823768,-1924.535449,-77222.426198
12725.490108,-6661.853478,-3701.029710,-77528.864398
12725.492674,3849.070898,0.000000,-78907.836294
12725.495239,2960.823768,6513.812290,-76456.330700
12725.497804,-5329.482782,4737.318029,-78294.959896
12725.500370,4441.235652,-3701.029710,-79520.712692
12725.502935,1924.535449,-9178.553681,-78141.740796
12725.505500,-5921.647536,-6513.812290,-74311.263306
12725.508066,-1776.494261,-10658.965565,-78754.617194
12725.510631,2664.741391,-10807.006753,-77222.426198
12725.513196,-6217.729913,-7846.182985,-77682.083497
12725.515762,-148.041188,296.082377,-77375.645298
12725.518327,2220.617826,-3108.864956,-77069.207099
12725.520892,-6365.771101,1480.411884,-76149.892501
12725.523458,-3108.864956,-3404.947333,-78601.398095
12725.526023,6217.729913,-7698.141797,-79827.150892
12725.528588,-592.164754,-8290.306550,-77069.207099
12725.531154,-4737.318029,-7846.182985,-79980.369991
12725.533719,5625.565159,-5329.482782,-78601.398095
12725.536284,-592.164754,-2220.617826,-77682.083497
12725.538850,-3552.988522,-592.164754,-80286.808190
12725.541365,5921.647536,-3849.070898,-79214.274493
12725.543879,-888.247130,888.247130,-74924.139704
12725.546393,-740.205942,-7254.018232,-76609.549800
12725.548907,888.247130,-7402.059420,-77222.426198
12725.551420,2368.659014,-10807.006753,-76456.330700
12725.553934,-7254.018232,-6661.853478,-77375.645298
12725.556448,1628.453072,-7402.059420,-79673.931792
12725.558962,3552.988522,-148.041188,-75996.673402
12725.561476,-5329.482782,-2664.741391,-77069.207099
12725.563990,2664.741391,-2812.782580,-79061.055394
12725.566503,1924.535449,-592.164754,-77069.207099
12725.569017,-6957.935855,-1184.329507,-77069.207099
12725.571531,-296.082377,-5477.523971,-78601.398095
12725.574045,4441.235652,-5033.400406,-78141.740796
12725.576559,-5329.482782,3701.029710,-74311.263306
12725.579073,-2812.782580,9030.512492,-78907.836294
12725.581586,3552.988522,8438.347739,-76303.111601
12725.584100,-5181.441594,8438.347739,-76149.892501
12725.586614,-1036.288319,4589.276840,-78294.959896
12725.589128,592.164754,-296.082377,-76915.987999
12725.591642,0.000000,-2072.576638,-77222.426198
12725.594156,-5477.523971,-3404.947333,-76915.987999
12725.596670,-444.123565,2664.741391,-78294.959896
12725.599183,2960.823768,7698.141797,-77069.207099
12725.601697,-7105.977043,7698.141797,-76762.768900
12725.604211,0.000000,-4145.153275,-78754.617194
12725.606725,3849.070898,10658.965565,-74617.701505
12725.609239,-7105.977043,-10807.006753,-79367.493593
12725.611753,444.123565,6217.729913,-76456.330700
12725.614266,3108.864956,1924.535449,-78754.617194
12725.616780,-2664.741391,1036.288319,-76762.768900
12725.619294,-3108.864956,10955.047942,-78448.178995
12725.621808,3849.070898,3552.988522,-77375.645298
12725.624322,-3701.029710,14063.912898,-74311.263306
12725.626836,-2368.659014,2664.741391,-80593.246390
12725.629349,5921.647536,2220.617826,-77682.083497
12725.631863,-5773.606348,-4737.318029,-77528.864398
12725.634377,-1036.288319,1924.535449,-77682.083497
12725.636891,3404.947333,-3404.947333,-79520.712692
12725.639405,2812.782580,7402.059420,-75843.454302
12725.641932,-3849.070898,1776.494261,-78448.178995
12725.644459,4885.359217,-444.123565,-78754.617194
12725.646986,2516.700203,-5329.482782,-77069.207099
12725.649513,-3997.112087,-5921.647536,-75843.454302
12725.652040,6513.812290,-12287.418637,-79367.493593
12725.654567,2664.741391,-9918.759623,-77069.207099
12725.657094,-3552.988522,-6217.729913,-78294.959896
12725.659621,0.000000,-2220.617826,-78448.178995
12725.662148,1776.494261,-2368.659014,-77682.083497
12725.664675,-5477.523971,740.205942,-76303.111601
12725.667202,-2368.659014,-4145.153275,-78141.740796
12725.669729,888.247130,-6809.894666,-77069.207099
12725.672256,-6513.812290,-6365.771101,-75843.454302
12725.674783,1036.288319,-5477.523971,-78141.740796
12725.677310,1332.370696,-7994.224174,-75843.454302
12725.679837,-4737.318029,-2368.659014,-77069.207099
12725.682364,-2220.617826,4293.194464,-76609.549800
12725.684891,6809.894666,-6217.729913,-79061.055394
12725.687418,-888.247130,-2664.741391,-76915.987999
12725.689945,-1776.494261,-7846.182985,-77528.864398
12725.692472,7550.100608,-7550.100608,-77988.521696
12725.694999,-3552.988522,-9030.512492,-77682.083497
12725.697526,-888.247130,-6513.812290,-78754.617194
12725.700053,1924.535449,-7994.224174,-77222.426198
12725.702580,2960.823768,-2664.741391,-75996.673402
12725.705107,-4589.276840,-1628.453072,-77222.426198
12725.707635,3849.070898,-2664.741391,-78907.836294
12725.710162,2220.617826,-148.041188,-77682.083497
12725.712689,-5921.647536,-3849.070898,-77222.426198
12725.715216,6217.729913,-3404.947333,-77682.083497
12725.717743,3997.112087,-740.205942,-77069.207099
12725.720270,-2812.782580,5033.400406,-77988.521696
12725.722797,5033.400406,6365.771101,-78601.398095
12725.725324,2664.741391,7698.141797,-77222.426198
12725.727851,-5625.565159,5181.441594,-76762.768900
12725.730378,-2072.576638,3404.947333,-78907.836294
12725.732905,296.082377,-2072.576638,-76456.330700
12725.735432,-6661.853478,-296.082377,-76149.892501
12725.737959,-740.205942,-1776.494261,-79827.150892
12725.740486,3404.947333,2960.823768,-79214.274493
12725.742974,-5921.647536,5181.441594,-74924.139704
12725.745462,-888.247130,9326.594869,-77988.521696
12725.747950,6513.812290,1332.370696,-77682.083497
12725.750438,444.123565,-3404.947333,-76303.111601
12725.752926,-2960.823768,1776.494261,-77988.521696
12725.755414,7254.018232,-2072.576638,-78754.617194
12725.757902,-1776.494261,1776.494261,-77375.645298
12725.760390,-1332.370696,5477.523971,-77375.645298
12725.762879,4589.276840,4737.318029,-79061.055394
12725.765367,-3256.906145,11399.171507,-76762.768900
12725.767855,-1332.370696,9030.512492,-78754.617194
12725.770343,2812.782580,3701.029710,-78907.836294
12725.772831,2220.617826,-3108.864956,-77375.645298
12725.775319,-2516.700203,-1184.329507,-77682.083497
12725.777807,4589.276840,-2960.823768,-79367.493593
12725.780295,3552.988522,2072.576638,-77528.864398
12725.782783,-5773.606348,2664.741391,-77682.083497
12725.785271,5625.565159,-1332.370696,-79061.055394
12725.787759,2960.823768,-2812.782580,-76762.768900
12725.790247,-4589.276840,-5477.523971,-77222.426198
12725.792735,-1036.288319,-9178.553681,-78141.740796
12725.795224,1924.535449,-11843.295072,-78294.959896
12725.797712,-5921.647536,-7550.100608,-76303.111601
12725.800200,-1628.453072,-3701.029710,-78448.178995
12725.802688,2812.782580,-3404.947333,-76762.768900
12725.805176,-7846.182985,-296.082377,-75996.673402
12725.807664,-1480.411884,-2960.823768,-79061.055394
12725.810152,1628.453072,-3997.112087,-77222.426198
12725.812640,-4885.359217,-4737.318029,-76303.111601
12725.815128,-3552.988522,-1036.288319,-77375.645298
12725.817616,6661.853478,-7698.141797,-78601.398095
12725.820104,-1628.453072,-8290.306550,-75843.454302
12725.822592,-3849.070898,1924.535449,-76303.111601
12725.825080,5033.400406,-3256.906145,-78601.398095
12725.827569,-2664.741391,-1924.535449,-76456.330700
12725.830057,-2960.823768,-8734.430116,-78294.959896
12725.832545,5329.482782,-8438.347739,-77375.645298
12725.835033,-3849.070898,-7550.100608,-78294.959896
12725.837521,-6217.729913,-8438.347739,-77222.426198
12725.840009,3849.070898,-3552.988522,-79827.150892
12725.842517,1776.494261,-3404.947333,-77375.645298
12725.845024,-4885.359217,-2368.659014,-77682.083497
12725.847532,4589.276840,-2960.823768,-78141.740796
12725.850040,2516.700203,296.082377,-77988.521696
12725.852548,-3404.947333,-3108.864956,-78141.740796
12725.855055,4885.359217,-1628.453072,-79061.055394
12725.857563,2664.741391,-592.164754,-75690.235202
12725.860071,-5329.482782,6957.935855,-77222.426198
12725.862579,-2812.782580,9622.677246,-77222.426198
12725.865087,2516.700203,5921.647536,-76609.549800
12725.867594,-5921.647536,4589.276840,-76762.768900
12725.870102,-444.123565,296.082377,-77988.521696
12725.872610,444.123565,740.205942,-77375.645298
12725.875118,-5033.400406,-888.247130,-77069.207099
12725.877625,-1332.370696,592.164754,-78907.836294
12725.880133,3997.112087,3997.112087,-78601.398095
12725.882641,0.000000,9178.553681,-77375.645298
12725.885149,-3108.864956,2072.576638,-79827.150892
12725.887656,6957.935855,2220.617826,-76456.330700
12725.890164,740.205942,1776.494261,-76609.549800
12725.892672,-2960.823768,-1184.329507,-78448.178995
12725.895180,6217.729913,592.164754,-79980.369991
12725.897687,-296.082377,2664.741391,-77682.083497
12725.900195,-3552.988522,9918.759623,-75843.454302
12725.902703,3256.906145,6365.771101,-76915.987999
12725.905211,2960.823768,10362.883188,-76609.549800
12725.907719,-5033.400406,3404.947333,-78907.836294
12725.910226,2516.700203,888.247130,-79673.931792
12725.912734,3404.947333,-3256.906145,-77835.302597
12725.915242,-7698.141797,-592.164754,-77069.207099
12725.917750,7105.977043,-444.123565,-79673.931792
12725.920257,4293.194464,3404.947333,-78448.178995
12725.922780,-5033.400406,444.123565,-77835.302597
12725.925303,-2368.659014,-5033.400406,-78448.178995
12725.927826,2664.741391,-6957.935855,-76609.549800
12725.930349,-4737.318029,-8142.265362,-76149.892501
12725.932872,0.000000,-11103.089130,-78907.836294
12725.935395,5181.441594,-9030.512492,-77069.207099
12725.937918,-7846.182985,-4293.194464,-75843.454302
12725.940441,296.082377,148.041188,-77528.864398
12725.942964,3997.112087,-3701.029710,-78141.740796
12725.945487,-3997.112087,-1776.494261,-75690.235202
12725.948010,-1332.370696,-1776.494261,-78601.398095
12725.950533,6513.812290,-10955.047942,-79367.493593
12725.953056,592.164754,-6809.894666,-77375.645298
12725.955579,-2812.782580,-888.247130,-78907.836294
12725.958102,7254.018232,-9622.677246,-79520.712692
12725.960625,0.000000,2368.659014,-75996.673402
12725.963148,-2664.741391,-5181.441594,-76303.111601
12725.965671,6661.853478,-7402.059420,-78907.836294
12725.968194,-1924.535449,-2960.823768,-75996.673402
12725.970717,-5625.565159,-10658.965565,-77988.521696
12725.973239,2960.823768,-6513.812290,-80286.808190
12725.975762,1332.370696,-9326.594869,-76149.892501
12725.978285,-5329.482782,-3997.112087,-75996.673402
12725.980808,1924.535449,-3849.070898,-77988.521696
12725.983331,3849.070898,-592.164754,-77375.645298
12725.985854,-5477.523971,444.123565,-77988.521696
12725.988377,4441.235652,-3256.906145,-78601.398095
12725.990900,1924.535449,-1480.411884,-78294.959896
12725.993423,-4145.153275,3108.864956,-75996.673402
12725.995946,-1628.453072,2960.823768,-79061.055394
12725.998469,1924.535449,5033.400406,-76915.987999
12726.000992,-5625.565159,8142.265362,-75077.358804
12726.003515,-3404.947333,7402.059420,-77222.426198
12726.006038,5477.523971,740.205942,-79061.055394
12726.008561,2960.823768,148.041188,-77222.426198
12726.011084,-3997.112087,1036.288319,-78601.398095
12726.013607,7402.059420,1480.411884,-80133.589091
12726.016130,2664.741391,3997.112087,-78448.178995
12726.018653,-7698.141797,7402.059420,-77682.083497
12726.021176,-1480.411884,1776.494261,-79520.712692
12726.023666,2516.700203,1036.288319,-74924.139704
12726.026156,-4885.359217,2072.576638,-75843.454302
12726.028646,-1184.329507,-3404.947333,-80133.589091
12726.031137,2072.576638,4589.276840,-77222.426198
12726.033627,-4885.359217,2072.576638,-77528.864398
12726.036117,-296.082377,7402.059420,-75996.673402
12726.038607,6957.935855,5329.482782,-77528.864398
12726.041098,-444.123565,9326.594869,-75383.797003
12726.043588,-1184.329507,6661.853478,-79673.931792
12726.046078,5773.606348,-1924.535449,-79061.055394
12726.048568,-3256.906145,-148.041188,-76915.987999
12726.051059,-1480.411884,-1776.494261,-78754.617194
12726.053549,5329.482782,1628.453072,-77988.521696
12726.056039,-3552.988522,2220.617826,-79061.055394
12726.058529,-4293.194464,-1332.370696,-79673.931792
12726.061019,5625.565159,-5773.606348,-78907.836294
12726.063510,3701.029710,-5181.441594,-76609.549800
12726.066000,-3404.947333,-8290.306550,-78448.178995
12726.068490,6365.771101,-9474.636058,-78907.836294
12726.070980,1628.453072,-8586.388927,-77222.426198
12726.073471,-3552.988522,-592.164754,-76456.330700
12726.075961,6069.688724,-4145.153275,-78907.836294
12726.078451,3108.864956,592.164754,-77528.864398
12726.080941,-2812.782580,-4589.276840,-78294.959896
12726.083432,1332.370696,-4737.318029,-77835.302597
12726.085922,1036.288319,-6365.771101,-75996.673402
12726.088412,-4589.276840,-6809.894666,-77069.207099
12726.090902,-3404.947333,-5033.400406,-81512.560987
12726.093393,2368.659014,0.000000,-75690.235202
12726.095883,-4885.359217,-6365.771101,-75996.673402
12726.098373,-888.247130,-5921.647536,-78754.617194
12726.100863,740.205942,-6957.935855,-77375.645298
12726.103353,888.247130,-5033.400406,-76303.111601
12726.105844,-2812.782580,-8438.347739,-79520.712692
12726.108334,8734.430116,-10362.883188,-78601.398095
12726.110824,-1332.370696,-6957.935855,-75996.673402
12726.113314,-1332.370696,-2960.823768,-77682.083497
12726.115805,4293.194464,-4145.153275,-76609.549800
12726.118295,-1776.494261,1776.494261,-77222.426198
12726.120785,-2664.741391,-2220.617826,-79980.369991
12726.123296,8586.388927,-3552.988522,-77835.302597
12726.125807,3404.947333,2220.617826,-77222.426198
12726.128319,-5181.441594,5625.565159,-77682.083497
12726.130830,4737.318029,6661.853478,-79367.493593
12726.133341,2812.782580,7105.977043,-77069.207099
12726.135852,-3997.112087,5773.606348,-77069.207099
12726.138363,7254.018232,3849.070898,-78754.617194
12726.140874,3404.947333,296.082377,-77375.645298
12726.143386,-3108.864956,444.123565,-78754.617194
12726.145897,7254.018232,1036.288319,-77069.207099
12726.148408,1924.535449,2368.659014,-78141.740796
12726.150919,-5033.400406,6661.853478,-76456.330700
12726.153430,-3849.070898,6365.771101,-78294.959896
12726.155942,1776.494261,1184.329507,-77528.864398
12726.158453,-6365.771101,-3552.988522,-77988.521696
12726.160964,-2516.700203,2812.782580,-79520.712692
12726.163475,888.247130,2072.576638,-76303.111601
12726.165986,-7402.059420,296.082377,-78141.740796
12726.168497,1332.370696,5625.565159,-78754.617194
12726.171009,5329.482782,5921.647536,-78907.836294
12726.173520,296.082377,8438.347739,-76762.768900
12726.176031,-1776.494261,5329.482782,-78907.836294
12726.178542,9326.594869,740.205942,-78448.178995
12726.181053,-2220.617826,-888.247130,-76762.768900
12726.183564,-1184.329507,-592.164754,-78601.398095
12726.186076,5921.647536,-1480.411884,-77835.302597
12726.188587,-1036.288319,2368.659014,-77069.207099
12726.191098,-2960.823768,-1924.535449,-78907.836294
12726.193609,3701.029710,-4293.194464,-78448.178995
12726.196120,2960.823768,-7254.018232,-76456.330700
12726.198631,-5181.441594,-6513.812290,-78907.836294
12726.201143,4589.276840,-9918.759623,-79673.931792
12726.203654,2220.617826,-3404.947333,-75996.673402
12726.206165,-6809.894666,-4145.153275,-77222.426198
12726.208676,6513.812290,-2220.617826,-77682.083497
12726.211187,2220.617826,-5329.482782,-79367.493593
12726.213699,-4145.153275,296.082377,-77528.864398
12726.216210,-148.041188,-6661.853478,-77988.521696
12726.218721,1776.494261,-6365.771101,-77069.207099
12726.221232,-4885.359217,-1628.453072,-75383.797003
12726.223760,-2516.700203,-9770.718434,-78907.836294
12726.226289,1332.370696,444.123565,-75230.577904
12726.228817,-7105.977043,-5773.606348,-77988.521696
12726.231346,-2368.659014,-1480.411884,-79061.055394
12726.233874,740.205942,-13471.748144,-78448.178995
12726.236403,-7846.182985,-4589.276840,-78448.178995
12726.238931,-2812.782580,-8882.471304,-78907.836294
12726.241459,5773.606348,-9326.594869,-77988.521696
12726.243988,592.164754,-5921.647536,-76915.987999
12726.246516,-3849.070898,-2812.782580,-79214.274493
12726.249045,8734.430116,-2516.700203,-77988.521696
12726.251573,-2072.576638,1924.535449,-76303.111601
12726.254102,-1184.329507,-2072.576638,-78601.398095
12726.256630,4589.276840,-3997.112087,-78294.959896
12726.259158,-1184.329507,4145.153275,-76149.892501
12726.261687,-6809.894666,6365.771101,-76762.768900
12726.264215,1628.453072,8290.306550,-79061.055394
12726.266744,3997.112087,6661.853478,-77528.864398
12726.269272,-3256.906145,6365.771101,-77528.864398
12726.271801,4145.153275,444.123565,-80286.808190
12726.274329,1332.370696,2516.700203,-76762.768900
12726.276857,-7402.059420,-2516.700203,-78754.617194
12726.279386,4737.318029,3404.947333,-76762.768900
12726.281914,4293.194464,0.000000,-78294.959896
12726.284443,-5773.606348,7698.141797,-74464.482406
12726.286971,-2664.741391,4737.318029,-78448.178995
12726.289500,3108.864956,-8290.306550,-79367.493593
12726.292028,-6217.729913,9622.677246,-73238.729609
12726.294557,-888.247130,-3108.864956,-79673.931792
12726.297085,1480.411884,7105.977043,-76915.987999
12726.299613,-4145.153275,-1332.370696,-79061.055394
12726.302142,0.000000,11843.295072,-76149.892501
12726.304670,5921.647536,2960.823768,-78601.398095
12726.307199,2368.659014,7846.182985,-77222.426198
12726.309727,-3701.029710,2664.741391,-80133.589091
12726.312256,6809.894666,-2072.576638,-78907.836294
12726.314784,-592.164754,-296.082377,-76915.987999
12726.317312,-2664.741391,592.164754,-78294.959896
12726.319841,8142.265362,1184.329507,-79367.493593
12726.322369,-2960.823768,-4441.235652,-77682.083497
12726.324868,-2812.782580,-3997.112087,-75843.454302
12726.327367,1184.329507,-10955.047942,-79214.274493
12726.329865,3404.947333,-5773.606348,-76303.111601
12726.332364,-6217.729913,-8882.471304,-76609.549800
12726.334863,2960.823768,-4885.359217,-77835.302597
12726.337361,592.164754,-4441.235652,-77682.083497
12726.339860,-1480.411884,0.000000,-77069.207099
12726.342359,1480.411884,-3552.988522,-79214.274493
12726.344857,4441.235652,-6217.729913,-76456.330700
12726.347356,-7550.100608,-4441.235652,-77682.083497
12726.349855,-2812.782580,-11103.089130,-78754.617194
12726.352353,2664.741391,-2072.576638,-76915.987999
12726.354852,-5921.647536,-7402.059420,-77835.302597
12726.357351,592.164754,1480.411884,-77682.083497
12726.359849,2812.782580,-7698.141797,-76915.987999
12726.362348,-6809.894666,-6217.729913,-74924.139704
12726.364847,-2812.782580,-8438.347739,-79827.150892
12726.367345,2960.823768,-11547.212695,-76915.987999
12726.369844,592.164754,-6809.894666,-77069.207099
12726.372343,-3256.906145,-10362.883188,-78141.740796
12726.374841,6957.935855,-2220.617826,-77222.426198
12726.377340,740.205942,-4293.194464,-77375.645298
12726.379839,-4589.276840,3701.029710,-77835.302597
12726.382337,3552.988522,-5033.400406,-79520.712692
12726.384836,1184.329507,444.123565,-76456.330700
12726.387335,-3701.029710,296.082377,-78907.836294
12726.389833,8882.471304,3849.070898,-78294.959896
12726.392332,2812.782580,6217.729913,-76456.330700
12726.394831,-7698.141797,5329.482782,-77528.864398
12726.397329,1184.329507,5033.400406,-78141.740796
12726.399828,3108.864956,5773.606348,-77528.864398
12726.402327,-4441.235652,2516.700203,-75996.673402
12726.404825,1628.453072,-1924.535449,-81052.903688
12726.407324,4441.235652,3256.906145,-76609.549800
12726.409823,-5477.523971,1036.288319,-77222.426198
12726.412322,-2516.700203,3108.864956,-78294.959896
12726.414820,1480.411884,5181.441594,-78907.836294
12726.417319,3997.112087,3108.864956,-75843.454302
12726.419818,-5477.523971,1924.535449,-77375.645298
12726.422316,5033.400406,-2368.659014,-81512.560987
12726.424836,3552.988522,4885.359217,-76609.549800
12726.427355,-3997.112087,2812.782580,-77222.426198
12726.429874,8438.347739,9326.594869,-75690.235202
12726.432393,592.164754,4441.235652,-79061.055394
12726.434913,-1776.494261,9918.759623,-77069.207099
12726.437432,-3701.029710,2072.576638,-79520.712692
12726.439951,3997.112087,592.164754,-76456.330700
12726.442471,-6661.853478,-1776.494261,-75537.016103
12726.444990,444.123565,3552.988522,-78907.836294
12726.447509,2072.576638,-296.082377,-78448.178995
12726.450028,-5921.647536,-6217.729913,-75843.454302
12726.452548,-1036.288319,-6957.935855,-77988.521696
12726.455067,3849.070898,-9178.553681,-77528.864398
12726.457586,-7254.018232,-7994.224174,-76456.330700
12726.460106,-3404.947333,-5181.441594,-78448.178995
12726.462625,4145.153275,-7994.224174,-78754.617194
12726.465144,-2516.700203,148.041188,-75383.797003
12726.467663,-3404.947333,-3108.864956,-77682.083497
12726.470183,5477.523971,-5181.441594,-78754.617194
12726.472702,-4293.194464,-4589.276840,-77375.645298
12726.475221,-3552.988522,-5477.523971,-79214.274493
12726.477741,2812.782580,-10214.842000,-78907.836294
12726.480260,-5625.565159,-3701.029710,-75996.673402
12726.482779,-4737.318029,-2368.659014,-79367.493593
12726.485299,3997.112087,-3849.070898,-79061.055394
12726.487818,3404.947333,-2072.576638,-75996.673402
12726.490337,-4441.235652,-6217.729913,-77528.864398
12726.492856,5477.523971,-10066.800811,-79214.274493
12726.495376,2368.659014,-11103.089130,-76456.330700
12726.497895,-5181.441594,-7105.977043,-76762.768900
12726.500414,8586.388927,-8586.388927,-79061.055394
12726.502934,1036.288319,-4145.153275,-77988.521696
12726.505453,-4737.318029,444.123565,-75537.016103
12726.507972,-3552.988522,3552.988522,-78448.178995
12726.510491,3997.112087,-2220.617826,-77528.864398
12726.513011,-6365.771101,888.247130,-76762.768900
12726.515530,444.123565,1332.370696,-79367.493593
12726.518049,1628.453072,6365.771101,-77069.207099
12726.520569,-5921.647536,4589.276840,-77682.083497
12726.523088,-296.082377,7846.182985,-77682.083497
12726.525626,7254.018232,2812.782580,-79673.931792
12726.528162,-2960.823768,3404.947333,-76609.549800
12726.530699,-2368.659014,3404.947333,-77988.521696
12726.533235,5773.606348,-2516.700203,-78601.398095
12726.535771,-592.164754,1036.288319,-76915.987999
12726.538307,-1332.370696,5773.606348,-78601.398095
12726.540843,5181.441594,3404.947333,-78294.959896
12726.543379,-7402.059420,-1332.370696,-77682.083497
12726.545915,-3108.864956,6365.771101,-75690.235202
12726.548451,3849.070898,5181.441594,-77222.426198
12726.550988,3849.070898,3701.029710,-77222.426198
12726.553524,-5477.523971,4293.194464,-78754.617194
12726.556060,6069.688724,2368.659014,-80133.589091
12726.558596,4737.318029,7994.224174,-75996.673402
12726.561132,-3997.112087,6365.771101,-76762.768900
12726.563668,8586.388927,7550.100608,-77682.083497
12726.566204,2664.741391,0.000000,-78294.959896
12726.568740,-3552.988522,2812.782580,-75996.673402
12726.571276,-1480.411884,-444.123565,-78601.398095
12726.573813,3404.947333,296.082377,-77682.083497
12726.576349,-7105.977043,-5477.523971,-76149.892501
12726.578885,-1036.288319,-6217.729913,-77375.645298
12726.581421,740.205942,-10955.047942,-77528.864398
12726.583957,-6217.729913,-5625.565159,-76456.330700
12726.586493,-296.082377,-7994.224174,-79367.493593
12726.589029,2960.823768,-6661.853478,-77988.521696
12726.591565,-5329.482782,-2664.741391,-76303.111601
12726.594101,-2812.782580,-3108.864956,-77988.521696
12726.596638,6661.853478,-5033.400406,-79520.712692
12726.599174,-148.041188,-9178.553681,-76149.892501
12726.601710,-2664.741391,-5773.606348,-77528.864398
12726.604246,7550.100608,0.000000,-77988.521696
12726.606782,-3997.112087,-13027.624579,-79061.055394
12726.609318,-3849.070898,1480.411884,-77222.426198
12726.611854,4145.153275,-2812.782580,-77069.207099
12726.614390,-3997.112087,-4885.359217,-77528.864398
12726.616926,-4885.359217,-2812.782580,-77222.426198
12726.619463,4293.194464,-16728.654289,-80593.246390
12726.621999,4145.153275,-6809.894666,-78141.740796
12726.624535,-5477.523971,-11251.130318,-77988.521696
12726.627083,11103.089130,-3552.988522,-76456.330700
12726.629632,740.205942,-6957.935855,-78448.178995
12726.632180,-2220.617826,1036.288319,-77222.426198
12726.634729,2516.700203,148.041188,-77528.864398
12726.637277,4441.235652,1036.288319,-75383.797003
12726.639826,-8586.388927,-1036.288319,-77375.645298
12726.642374,740.205942,5033.400406,-78448.178995
12726.644923,1332.370696,4293.194464,-77682.083497
12726.647472,-5329.482782,8290.306550,-75383.797003
12726.650020,-296.082377,5181.441594,-79367.493593
12726.652569,4441.235652,3256.906145,-77528.864398
12726.655117,-6069.688724,2516.700203,-75996.673402
12726.657666,296.082377,1184.329507,-78294.959896
12726.660214,2664.741391,-296.082377,-77988.521696
12726.662763,-1628.453072,2664.741391,-77835.302597
12726.665311,-2664.741391,4885.359217,-77988.521696
12726.667860,6365.771101,1184.329507,-79367.493593
12726.670408,-3701.029710,3701.029710,-76149.892501
12726.672957,-2516.700203,-296.082377,-77988.521696
12726.675505,4589.276840,2960.823768,-77682.083497
12726.678054,-2516.700203,3404.947333,-77375.645298
12726.680602,-2664.741391,6809.894666,-79367.493593
12726.683151,3256.906145,4885.359217,-79061.055394
12726.685699,3701.029710,7698.141797,-78141.740796
12726.688248,-3849.070898,8438.347739,-77835.302597
12726.690796,3701.029710,2960.823768,-79520.712692
12726.693345,3404.947333,1332.370696,-76609.549800
12726.695894,-4145.153275,1628.453072,-76762.768900
12726.698442,4441.235652,-1332.370696,-78294.959896
12726.700991,3701.029710,-888.247130,-77222.426198
12726.703539,-3552.988522,-6957.935855,-78141.740796
12726.706088,-1628.453072,-5477.523971,-77069.207099
12726.708636,2368.659014,-10510.924376,-77069.207099
12726.711185,-8734.430116,-6661.853478,-76456.330700
12726.713733,148.041188,-6513.812290,-78601.398095
12726.716282,1480.411884,-3849.070898,-77528.864398
12726.718830,-5921.647536,-2072.576638,-75996.673402
12726.721379,-2516.700203,-4441.235652,-79061.055394
12726.723927,2960.823768,-4885.359217,-78294.959896
12726.726476,-5921.647536,-6661.853478,-76149.892501
12726.729034,-1332.370696,740.205942,-77222.426198
12726.731593,5625.565159,-6217.729913,-77375.645298
12726.734152,-1332.370696,-4293.194464,-76762.768900
12726.736711,-4441.235652,-6513.812290,-80746.465489
12726.739269,6661.853478,-3997.112087,-78601.398095
12726.741828,-1628.453072,-4293.194464,-75996.673402
12726.744387,-1924.535449,-5625.565159,-76915.987999
12726.746945,3256.906145,-13619.789333,-79367.493593
12726.749504,-4293.194464,-7846.182985,-75230.577904
12726.752063,-4589.276840,-8142.265362,-78754.617194
12726.754621,3849.070898,-3256.906145,-79980.369991
12726.757180,3108.864956,-1184.329507,-77835.302597
12726.759739,-4885.359217,1480.411884,-77528.864398
12726.762297,6661.853478,-1036.288319,-76915.987999
12726.764856,2812.782580,1332.370696,-78907.836294
12726.767415,-4145.153275,4441.235652,-77069.207099
12726.769973,7105.977043,4293.194464,-78754.617194
12726.772532,2368.659014,6365.771101,-76609.549800
12726.775091,-5773.606348,3552.988522,-76456.330700
12726.777649,-3552.988522,6217.729913,-77682.083497
12726.780208,3108.864956,-888.247130,-77375.645298
12726.782767,-5625.565159,4737.318029,-75843.454302
12726.785325,-1184.329507,-444.123565,-79980.369991
12726.787884,2220.617826,1480.411884,-76915.987999
12726.790443,-6069.688724,4885.359217,-75843.454302
12726.793001,-592.164754,2072.576638,-79061.055394
12726.795560,4737.318029,-4145.153275,-79061.055394
12726.798119,296.082377,3256.906145,-76609.549800
12726.800677,-1332.370696,3404.947333,-78141.740796
12726.803236,6809.894666,1480.411884,-80133.589091
12726.805795,-888.247130,4737.318029,-77222.426198
12726.808353,-2812.782580,9030.512492,-77682.083497
12726.810912,3849.070898,5477.523971,-77069.207099
12726.813471,-1776.494261,7254.018232,-76456.330700
12726.816029,-444.123565,3849.070898,-78907.836294
12726.818588,-296.082377,1184.329507,-78907.836294
12726.821147,2664.741391,740.205942,-77528.864398
12726.823705,-4737.318029,-148.041188,-78907.836294
12726.826264,-2516.700203,-8734.430116,-80286.808190
12726.828823,5477.523971,-9030.512492,-77375.645298
12726.831390,-6365.771101,-5921.647536,-77222.426198
12726.833957,-3701.029710,-7846.182985,-79061.055394
12726.836523,3849.070898,-8438.347739,-77988.521696
12726.839090,-3404.947333,-7105.977043,-75383.797003
12726.841657,-1332.370696,-444.123565,-75230.577904
12726.844224,6069.688724,-3997.112087,-77222.426198
12726.846791,-592.164754,-4441.235652,-77988.521696
12726.849358,-3997.112087,-7994.224174,-80440.027290
12726.851925,6365.771101,-5625.565159,-78754.617194
12726.854491,1776.494261,-3256.906145,-76609.549800
12726.857058,-3552.988522,-6069.688724,-78601.398095
12726.859625,5921.647536,-740.205942,-79367.493593
12726.862192,444.123565,-5181.441594,-78448.178995
12726.864759,-5921.647536,-3404.947333,-76456.330700
12726.867326,1036.288319,-9770.718434,-79980.369991
12726.869893,1480.411884,-10362.883188,-75843.454302
12726.872460,-5773.606348,-10658.965565,-76762.768900
12726.875026,444.123565,-9178.553681,-77069.207099
12726.877593,2516.700203,-5181.441594,-77835.302597
12726.880160,-6217.729913,-1036.288319,-77682.083497
12726.882727,-592.164754,1184.329507,-78754.617194
12726.885294,3256.906145,1480.411884,-75690.235202
12726.887861,-3997.112087,4737.318029,-75537.016103
12726.890428,-2220.617826,2072.576638,-79673.931792
12726.892994,592.164754,3997.112087,-79214.274493
12726.895561,-4737.318029,6513.812290,-76915.987999
12726.898128,-2072.576638,8142.265362,-79061.055394
12726.900695,4145.153275,1332.370696,-77835.302597
12726.903262,-7105.977043,2516.700203,-77069.207099
12726.905829,-3701.029710,1036.288319,-79214.274493
12726.908396,3701.029710,-148.041188,-78601.398095
12726.910962,3108.864956,3552.988522,-78448.178995
12726.913529,-2516.700203,0.000000,-77528.864398
12726.916096,4293.194464,6069.688724,-77222.426198
12726.918663,3404.947333,1924.535449,-76456.330700
12726.921230,-4145.153275,4441.235652,-77835.302597
12726.923797,6661.853478,-3404.947333,-81665.780087
12726.926364,2368.659014,7846.182985,-76762.768900
12726.928930,-5033.400406,2072.576638,-79214.274493
12726.931497,8290.306550,10658.965565,-77222.426198
12726.934031,3997.112087,5329.482782,-75843.454302
12726.936564,-5181.441594,7254.018232,-76149.892501
12726.939097,-444.123565,1036.288319,-79367.493593
12726.941630,2812.782580,2516.700203,-77222.426198
12726.944164,-5181.441594,1184.329507,-76915.987999
12726.946697,3256.906145,1184.329507,-77835.302597
12726.949230,3108.864956,-9178.553681,-77069.207099
12726.951764,-3997.112087,-7254.018232,-75996.673402
12726.954297,-1776.494261,-9030.512492,-78448.178995
12726.956830,7402.059420,-9622.677246,-78294.959896
12726.959363,-4737.318029,-6809.894666,-76456.330700
12726.961897,-1480.411884,-2812.782580,-78601.398095
12726.964430,3404.947333,-4589.276840,-78141.740796
12726.966963,-3997.112087,148.041188,-74311.263306
12726.969497,-2516.700203,-4885.359217,-80133.589091
12726.972030,3404.947333,-8586.388927,-78601.398095
12726.974563,-4737.318029,-10510.924376,-77682.083497
12726.977096,-3404.947333,-444.123565,-77528.864398
12726.979630,4885.359217,-5181.441594,-78448.178995
12726.982163,2812.782580,-592.164754,-75230.577904
12726.984696,-3404.947333,-6957.935855,-77222.426198
12726.987230,5477.523971,-4885.359217,-77528.864398
12726.989763,2664.741391,-7550.100608,-77682.083497
12726.992296,-2812.782580,-10658.965565,-79214.274493
12726.994829,4885.359217,-12287.418637,-77988.521696
12726.997363,2664.741391,-9030.512492,-75690.235202
12726.999896,-7105.977043,-2516.700203,-74924.139704
12727.002429,-592.164754,740.205942,-79214.274493
12727.004963,1776.494261,1036.288319,-77988.521696
12727.007496,-3849.070898,1332.370696,-76609.549800
12727.010029,-592.164754,3404.947333,-78294.959896
12727.012562,2072.576638,2960.823768,-77528.864398
12727.015096,-6661.853478,7994.224174,-77222.426198
12727.017629,296.082377,5477.523971,-78141.740796
12727.020162,2664.741391,3849.070898,-76149.892501
12727.022696,-592.164754,2072.576638,-77682.083497
12727.025229,-2220.617826,2516.700203,-77988.521696
12727.027762,7105.977043,888.247130,-78294.959896
12727.030295,-1184.329507,1184.329507,-76303.111601
12727.032829,-3552.988522,2072.576638,-78448.178995
12727.035375,5181.441594,5477.523971,-77222.426198
12727.037922,-5625.565159,-1776.494261,-77682.083497
12727.040468,-2664.741391,2368.659014,-79061.055394
12727.043015,5477.523971,2516.700203,-77988.521696
12727.045561,3701.029710,2220.617826,-78448.178995
12727.048107,-7105.977043,8438.347739,-77528.864398
12727.050654,4885.359217,3404.947333,-79673.931792
12727.053200,5477.523971,9178.553681,-76149.892501
12727.055747,-3849.070898,6069.688724,-77682.083497
12727.058293,9474.636058,5329.482782,-79214.274493
12727.060840,2368.659014,592.164754,-76303.111601
12727.063386,-2960.823768,3256.906145,-77375.645298
12727.065933,5329.482782,-1776.494261,-78907.836294
12727.068479,2072.576638,-7550.100608,-76915.987999
12727.071026,-5181.441594,-8438.347739,-75383.797003
12727.073572,-3404.947333,-8142.265362,-78294.959896
12727.076119,1332.370696,-10066.800811,-77069.207099
12727.078665,-6809.894666,-4589.276840,-76915.987999
12727.081211,148.041188,-7402.059420,-80440.027290
12727.083758,2516.700203,-1184.329507,-77222.426198
12727.086304,-5181.441594,-1924.535449,-77069.207099
12727.088851,0.000000,-2812.782580,-78141.740796
12727.091397,8142.265362,-7846.182985,-79827.150892
12727.093944,-444.123565,-2072.576638,-76915.987999
12727.096490,-888.247130,-5921.647536,-79520.712692
12727.099037,5625.565159,-4737.318029,-79367.493593
12727.101583,-3256.906145,-9030.512492,-77682.083497
12727.104130,-2960.823768,1480.411884,-75537.016103
12727.106676,4589.276840,-9918.759623,-77988.521696
12727.109222,-1776.494261,-1924.535449,-74311.263306
12727.111769,-2516.700203,-11399.171507,-80286.808190
12727.114315,3997.112087,-12879.583391,-79673.931792
12727.116872,2368.659014,-9178.553681,-76149.892501
12727.119430,-4145.153275,-4441.235652,-77222.426198
12727.121987,3108.864956,-1184.329507,-79061.055394
12727.124544,4293.194464,0.000000,-76762.768900
12727.127101,-3701.029710,1184.329507,-77069.207099
12727.129658,6217.729913,2516.700203,-79673.931792
12727.132215,3256.906145,6513.812290,-76456.330700
12727.134772,-3849.070898,7105.977043,-76456.330700
12727.137329,-1776.494261,5773.606348,-78294.959896
12727.139887,4293.194464,3256.906145,-75537.016103
12727.142444,-6513.812290,2664.741391,-76609.549800
12727.145001,-2220.617826,592.164754,-76762.768900
12727.147558,3849.070898,-1776.494261,-78141.740796
12727.150115,-7994.224174,4737.318029,-75996.673402
12727.152672,888.247130,6069.688724,-79673.931792
12727.155229,2072.576638,148.041188,-77835.302597
12727.157786,-740.205942,-2072.576638,-77069.207099
12727.160344,-3108.864956,4293.194464,-77528.864398
12727.162901,7994.224174,2664.741391,-77988.521696
12727.165458,-296.082377,3849.070898,-78907.836294
12727.168015,-4293.194464,6661.853478,-78754.617194
12727.170572,3701.029710,1628.453072,-79827.150892
12727.173129,296.082377,11843.295072,-73238.729609
12727.175686,-2960.823768,9030.512492,-78601.398095
12727.178243,9622.677246,1480.411884,-80286.808190
12727.180800,3997.112087,1776.494261,-77069.207099
12727.183358,-4885.359217,1184.329507,-76456.330700
12727.185915,1480.411884,-2516.700203,-78601.398095
12727.188472,3849.070898,-11399.171507,-76609.549800
12727.191029,-7105.977043,-8290.306550,-76762.768900
12727.193586,3849.070898,-10658.965565,-78294.959896
12727.196143,1776.494261,-6069.688724,-77528.864398
12727.198700,-3997.112087,-6069.688724,-78448.178995
12727.201257,3849.070898,-5921.647536,-79827.150892
12727.203815,5625.565159,-1776.494261,-78754.617194
12727.206372,-4589.276840,-2368.659014,-75537.016103
12727.208929,-3997.112087,-6513.812290,-78294.959896
12727.211486,3404.947333,-8290.306550,-77069.207099
12727.214043,-3997.112087,-8438.347739,-77222.426198
12727.216600,0.000000,-1480.411884,-77682.083497
12727.219165,2368.659014,-2812.782580,-76609.549800
12727.221730,-5625.565159,-7550.100608,-77835.302597
12727.224295,-1184.329507,-3108.864956,-76456.330700
12727.226859,5477.523971,-9474.636058,-78448.178995
12727.229424,3552.988522,-4885.359217,-75843.454302
12727.231989,-5921.647536,-13915.871710,-79061.055394
12727.234554,6809.894666,-10214.842000,-78294.959896
12727.237119,296.082377,-6957.935855,-77069.207099
12727.239683,-2368.659014,-592.164754,-78907.836294
12727.242248,-2220.617826,0.000000,-80593.246390
12727.244813,4589.276840,592.164754,-77528.864398
12727.247378,-9030.512492,4589.276840,-75230.577904
12727.249943,-6513.812290,4885.359217,-78294.959896
12727.252507,7254.018232,7105.977043,-80133.589091
12727.255072,-3552.988522,7846.182985,-76609.549800
12727.257637,-1924.535449,3552.988522,-77528.864398
12727.260202,6513.812290,0.000000,-78294.959896
12727.262767,-3552.988522,-444.123565,-76609.549800
12727.265331,-3701.029710,888.247130,-79673.931792
12727.267896,6365.771101,740.205942,-78141.740796
12727.270461,-1628.453072,2072.576638,-75537.016103
12727.273026,-5181.441594,6957.935855,-75537.016103
12727.275591,3256.906145,2960.823768,-77222.426198
12727.278155,3997.112087,2960.823768,-76149.892501
12727.280720,-4589.276840,1332.370696,-80440.027290
12727.283285,4293.194464,5477.523971,-78907.836294
12727.285850,2664.741391,2072.576638,-76762.768900
12727.288415,-5477.523971,7846.182985,-75537.016103
12727.290980,6809.894666,6809.894666,-79061.055394
12727.293544,4293.194464,8290.306550,-77375.645298
12727.296109,-7402.059420,3701.029710,-76762.768900
12727.298674,740.205942,3849.070898,-78754.617194
12727.301239,3701.029710,-740.205942,-78448.178995
12727.303804,-4737.318029,-4441.235652,-76303.111601
12727.306368,-1924.535449,-11991.336260,-78448.178995
12727.308933,3997.112087,-11547.212695,-75537.016103
12727.311498,-6661.853478,-9770.718434,-76762.768900
12727.314063,-3256.906145,-8734.430116,-78294.959896
12727.316628,1480.411884,-7105.977043,-77528.864398
12727.319192,2664.741391,-1480.411884,-77682.083497
12727.321764,-2664.741391,1628.453072,-78141.740796
12727.324335,6217.729913,-3256.906145,-79214.274493
12727.326906,444.123565,-5921.647536,-77069.207099
12727.329477,-3108.864956,-13323.706956,-80286.808190
12727.332048,8290.306550,-9474.636058,-79673.931792
12727.334619,3256.906145,5921.647536,-75537.016103
12727.337191,-3108.864956,-8882.471304,-77069.207099
12727.339762,5477.523971,-7105.977043,-80133.589091
12727.342333,3108.864956,-5773.606348,-75537.016103
12727.344904,-2812.782580,-6069.688724,-77528.864398
12727.347475,2072.576638,-8290.306550,-79061.055394
12727.350047,3108.864956,-11547.212695,-76609.549800
12727.352618,-6661.853478,-9622.677246,-75537.016103
12727.355189,1924.535449,-5773.606348,-78907.836294
12727.357760,2960.823768,740.205942,-78141.740796
12727.360331,-5477.523971,4293.194464,-77682.083497
12727.362902,-2664.741391,6957.935855,-79061.055394
12727.365474,2368.659014,2812.782580,-77528.864398
12727.368045,-4441.235652,8734.430116,-76303.111601
12727.370616,-3404.947333,4737.318029,-79673.931792
12727.373187,4589.276840,5921.647536,-77528.864398
12727.375758,-5773.606348,2664.741391,-75996.673402
12727.378329,2368.659014,592.164754,-77988.521696
12727.380901,-296.082377,-4145.153275,-78754.617194
12727.383472,-1480.411884,1924.535449,-76303.111601
12727.386043,-5921.647536,-1036.288319,-79061.055394
12727.388614,9178.553681,10955.047942,-77222.426198
12727.391185,-444.123565,-1776.494261,-78448.178995
12727.393756,-2812.782580,3256.906145,-77682.083497
12727.396328,5625.565159,3997.112087,-77988.521696
12727.398899,3108.864956,2516.700203,-78294.959896
12727.401470,-4441.235652,5329.482782,-79214.274493
12727.404041,5329.482782,-296.082377,-79214.274493
12727.406612,-1480.411884,11399.171507,-75996.673402
12727.409184,-5773.606348,6809.894666,-77682.083497
12727.411755,1036.288319,7105.977043,-78294.959896
12727.414326,4589.276840,592.164754,-77528.864398
12727.416897,-5033.400406,3108.864956,-75996.673402
12727.419468,592.164754,-3108.864956,-78601.398095
12727.422039,2664.741391,-9918.759623,-76915.987999
12727.424616,-4737.318029,-12731.542202,-76915.987999
12727.427192,2516.700203,-10362.883188,-76609.549800
12727.429769,444.123565,-8882.471304,-76915.987999
12727.432345,-4589.276840,-4441.235652,-77069.207099
12727.434921,-2072.576638,-888.247130,-78448.178995
12727.437498,7402.059420,-2516.700203,-78754.617194
12727.440074,-2960.823768,2516.700203,-75996.673402
12727.442651,-3256.906145,-7105.977043,-79673.931792
12727.445227,3997.112087,-7254.018232,-78141.740796
12727.447803,-2664.741391,-10807.006753,-78907.836294
12727.450380,-1628.453072,-9770.718434,-79520.712692
12727.452956,7254.018232,-1332.370696,-76456.330700
12727.455533,1776.494261,-5773.606348,-77835.302597
12727.458109,-4737.318029,-4737.318029,-77375.645298
12727.460685,7254.018232,-6365.771101,-78601.398095
12727.463262,4441.235652,-8142.265362,-78141.740796
12727.465838,-2812.782580,-11103.089130,-78294.959896
12727.468415,4441.235652,-13323.706956,-76762.768900
12727.470991,2812.782580,-6513.812290,-75537.016103
12727.473567,-3849.070898,-1480.411884,-78141.740796
12727.476144,6809.894666,1036.288319,-79520.712692
12727.478720,2664.741391,2072.576638,-77682.083497
12727.481296,-4885.359217,9474.636058,-75843.454302
12727.483873,-4293.194464,7994.224174,-78294.959896
12727.486449,1924.535449,8586.388927,-76303.111601
12727.489026,-3849.070898,4885.359217,-77835.302597
12727.491602,1036.288319,5477.523971,-78907.836294
12727.494178,740.205942,-1924.535449,-78601.398095
12727.496755,-7550.100608,-1480.411884,-75690.235202
12727.499331,-1184.329507,1480.411884,-78754.617194
12727.501908,9918.759623,10807.006753,-76456.330700
12727.504484,-444.123565,1036.288319,-78294.959896
12727.507060,-4145.153275,6809.894666,-78754.617194
12727.509637,4589.276840,2220.617826,-77528.864398
12727.512213,0.000000,592.164754,-78294.959896
12727.514790,296.082377,6069.688724,-77528.864398
12727.517366,9030.512492,2368.659014,-78294.959896
12727.519942,-4885.359217,6661.853478,-76303.111601
12727.522519,-4293.194464,5625.565159,-79214.274493
12727.525095,4885.359217,10066.800811,-78601.398095
12727.527675,2664.741391,4145.153275,-78141.740796
12727.530255,-3256.906145,9622.677246,-76456.330700
12727.532834,148.041188,-2812.782580,-78294.959896
12727.535414,3256.906145,-2072.576638,-76915.987999
12727.537993,-8586.388927,-14952.160028,-79061.055394
12727.540572,7550.100608,-10510.924376,-77988.521696
12727.543152,3404.947333,-12879.583391,-78294.959896
12727.545731,-3404.947333,-7254.018232,-76915.987999
12727.548311,-2812.782580,-5477.523971,-79673.931792
12727.550890,3701.029710,-888.247130,-75230.577904
12727.553469,-5033.400406,444.123565,-75537.016103
12727.556049,-1332.370696,888.247130,-78754.617194
12727.558628,2072.576638,-7550.100608,-77222.426198
12727.561208,-8734.430116,-13175.665768,-77835.302597
12727.563787,-740.205942,-4737.318029,-79673.931792
12727.566366,2072.576638,-9030.512492,-77988.521696
12727.568946,2368.659014,-6217.729913,-76762.768900
12727.571525,-6069.688724,-3108.864956,-78141.740796
12727.574105,5181.441594,-5477.523971,-78907.836294
12727.576684,1332.370696,-4589.276840,-78754.617194
12727.579263,-1332.370696,-9326.594869,-79520.712692
12727.581843,8290.306550,-14063.912898,-79520.712692
12727.584422,-1480.411884,-7254.018232,-75843.454302
12727.587002,-5329.482782,-5329.482782,-79061.055394
12727.589581,3997.112087,-2664.741391,-78294.959896
12727.592160,5773.606348,1036.288319,-78448.178995
12727.594740,-4589.276840,8586.388927,-75690.235202
12727.597319,-1776.494261,7698.141797,-77222.426198
12727.599899,1924.535449,11547.212695,-75230.577904
12727.602478,-6513.812290,5181.441594,-77682.083497
12727.605057,3849.070898,6957.935855,-77835.302597
12727.607637,2516.700203,-296.082377,-76609.549800
12727.610216,-4293.194464,2072.576638,-76303.111601
12727.612796,-1480.411884,-2960.823768,-79827.150892
12727.615375,7105.977043,2220.617826,-77528.864398
12727.617954,-3108.864956,9178.553681,-78141.740796
12727.620534,-2368.659014,3552.988522,-79214.274493
12727.623113,1036.288319,296.082377,-76456.330700
12727.625693,-5625.565159,3404.947333,-77222.426198
12727.628272,1036.288319,5625.565159,-79673.931792
12727.630854,6661.853478,1036.288319,-79061.055394
12727.633436,-4293.194464,4589.276840,-74464.482406
12727.636017,-4737.318029,4885.359217,-77528.864398
12727.638599,6365.771101,7994.224174,-77682.083497
12727.641181,2368.659014,6513.812290,-77528.864398
12727.643763,-2368.659014,6957.935855,-78601.398095
12727.646345,5625.565159,1036.288319,-79214.274493
12727.648927,1480.411884,-1184.329507,-75690.235202
12727.651509,-5033.400406,-12287.418637,-77682.083497
12727.654090,6957.935855,-13915.871710,-78294.959896
12727.656672,3404.947333,-12731.542202,-77988.521696
12727.659254,-5773.606348,-7254.018232,-76609.549800
12727.661836,-4885.359217,-3404.947333,-79673.931792
12727.664418,6365.771101,-592.164754,-77528.864398
12727.667000,888.247130,0.000000,-77375.645298
12727.669581,-1628.453072,2072.576638,-79520.712692
12727.672163,4589.276840,-8882.471304,-79980.369991
12727.674745,-2072.576638,-10955.047942,-77682.083497
12727.677327,-1924.535449,-8290.306550,-78141.740796
12727.679909,7402.059420,-5329.482782,-78907.836294
12727.682491,-1184.329507,-3849.070898,-75996.673402
12727.685073,-6217.729913,-5773.606348,-77528.864398
12727.687654,1924.535449,-6217.729913,-78601.398095
12727.690236,2664.741391,-5329.482782,-75690.235202
12727.692818,-1776.494261,-6661.853478,-76915.987999
12727.695400,740.205942,-13915.871710,-80133.589091
12727.697982,1924.535449,-7698.141797,-75537.016103
12727.700564,-7254.018232,-5625.565159,-75996.673402
12727.703145,3849.070898,-444.123565,-78907.836294
12727.705727,2812.782580,888.247130,-78754.617194
12727.708309,-2812.782580,11103.089130,-75843.454302
12727.710891,-4737.318029,10510.924376,-79520.712692
12727.713473,1628.453072,9178.553681,-77222.426198
12727.716055,-4885.359217,8290.306550,-75843.454302
12727.718637,1628.453072,4145.153275,-78754.617194
12727.721218,2960.823768,-3997.112087,-77988.521696
12727.723800,-4885.359217,-444.123565,-76303.111601
12727.726382,-2220.617826,-3108.864956,-80286.808190
12727.728964,6957.935855,3108.864956,-77988.521696
12727.731546,5181.441594,9918.759623,-77069.207099
12727.734130,-5329.482782,-2220.617826,-80440.027290
12727.736714,7698.141797,11695.253884,-75537.016103
12727.739297,0.000000,-2812.782580,-77069.207099
12727.741881,-4589.276840,13323.706956,-78141.740796
12727.744465,4145.153275,-3701.029710,-80746.465489
12727.747049,1480.411884,11103.089130,-75537.016103
12727.749633,-7105.977043,1184.329507,-78754.617194
12727.752217,-740.205942,7698.141797,-76762.768900
12727.754801,3849.070898,3849.070898,-76915.987999
12727.757385,-1628.453072,7402.059420,-78754.617194
12727.759969,1628.453072,-296.082377,-79673.931792
12727.762552,444.123565,-9622.677246,-75230.577904
12727.765136,-6809.894666,-14508.036463,-75996.673402
12727.767720,888.247130,-15544.324782,-78141.740796
12727.770304,4145.153275,-11103.089130,-76762.768900
12727.772888,-3108.864956,-9030.512492,-78754.617194
12727.775472,-1924.535449,1332.370696,-77835.302597
12727.778056,3701.029710,-1924.535449,-77682.083497
12727.780640,2368.659014,3256.906145,-75996.673402
12727.783224,-2812.782580,148.041188,-79980.369991
12727.785808,4293.194464,-13619.789333,-79980.369991
12727.788391,-4885.359217,-6217.729913,-76149.892501
12727.790975,-1332.370696,-6069.688724,-77988.521696
12727.793559,5033.400406,-2664.741391,-77069.207099
12727.796143,4441.235652,-4737.318029,-76762.768900
12727.798727,-6217.729913,-6661.853478,-78448.178995
12727.801311,4145.153275,-4737.318029,-79214.274493
12727.803895,3404.947333,-8142.265362,-77069.207099
12727.806479,-1924.535449,-9770.718434,-79061.055394
12727.809063,6809.894666,-12139.377449,-78141.740796
12727.811646,3256.906145,-3849.070898,-74924.139704
12727.814230,-7254.018232,-6217.729913,-77069.207099
12727.816814,10066.800811,2812.782580,-78448.178995
12727.819398,2516.700203,5625.565159,-78141.740796
12727.821982,-6809.894666,14656.077652,-75077.358804
12727.824566,-3108.864956,9178.553681,-78754.617194
12727.827150,2664.741391,8882.471304,-76609.549800
12727.829734,-5181.441594,3108.864956,-77222.426198
12727.832318,296.082377,1776.494261,-79061.055394
12727.834902,1480.411884,-1776.494261,-77528.864398
12727.837486,-7105.977043,-6809.894666,-76609.549800
12727.840070,1332.370696,444.123565,-77835.302597
12727.842655,8586.388927,5329.482782,-77988.521696
12727.845239,148.041188,9770.718434,-76609.549800
12727.847823,-4293.194464,2072.576638,-80440.027290
12727.850408,4885.359217,6217.729913,-76609.549800
12727.852992,-592.164754,2516.700203,-77222.426198
12727.855576,-2368.659014,7698.141797,-77835.302597
12727.858161,8142.265362,444.123565,-79827.150892
12727.860745,-2960.823768,8586.388927,-75230.577904
12727.863329,-4737.318029,5625.565159,-76762.768900
12727.865914,2220.617826,6069.688724,-80133.589091
12727.868498,4293.194464,7550.100608,-77375.645298
12727.871082,-4885.359217,1924.535449,-77835.302597
12727.873667,2072.576638,-10214.842000,-79061.055394
12727.876251,2960.823768,-13323.706956,-75996.673402
12727.878835,-7105.977043,-14804.118840,-77988.521696
12727.881420,4737.318029,-14508.036463,-79061.055394
12727.884004,3701.029710,-7550.100608,-77835.302597
12727.886588,-4589.276840,-3108.864956,-77375.645298
12727.889173,-2368.659014,2220.617826,-77069.207099
12727.891757,2812.782580,-2812.782580,-75996.673402
12727.894341,-7105.977043,-3108.864956,-76762.768900
12727.896926,-1628.453072,-2516.700203,-79061.055394
12727.899510,2368.659014,-8882.471304,-76762.768900
12727.902094,-5773.606348,-7994.224174,-76609.549800
12727.904679,-148.041188,-10066.800811,-80440.027290
12727.907263,1480.411884,-7105.977043,-77069.207099
12727.909847,-5921.647536,-6365.771101,-75077.358804
12727.912432,-3404.947333,-3108.864956,-79061.055394
12727.915016,8290.306550,-7254.018232,-79827.150892
12727.917600,740.205942,-8882.471304,-78754.617194
12727.920185,-2516.700203,-8586.388927,-78907.836294
12727.922769,5921.647536,-7698.141797,-77835.302597
12727.925353,740.205942,-4293.194464,-76609.549800
12727.927938,-5773.606348,1480.411884,-78601.398095
12727.930522,7550.100608,5181.441594,-79673.931792
12727.933106,-4441.235652,13027.624579,-76303.111601
12727.935691,-3552.988522,12731.542202,-75690.235202
12727.938275,1924.535449,8142.265362,-76762.768900
12727.940860,6069.688724,3997.112087,-75843.454302
12727.943444,-6217.729913,-1776.494261,-77528.864398
12727.946029,6513.812290,-888.247130,-78141.740796
12727.948614,-148.041188,-6217.729913,-77988.521696
12727.951198,-2368.659014,5033.400406,-75843.454302
12727.953783,2220.617826,1480.411884,-79980.369991
12727.956368,2812.782580,2072.576638,-80286.808190
12727.958952,-7105.977043,10066.800811,-77222.426198
12727.961537,-1184.329507,1924.535449,-79367.493593
12727.964122,4441.235652,9030.512492,-77375.645298
12727.966706,-1628.453072,2368.659014,-78448.178995
12727.969291,-2664.741391,4293.194464,-79980.369991
12727.971876,3404.947333,148.041188,-78141.740796
12727.974460,-5625.565159,6513.812290,-72932.291410
12727.977045,-444.123565,6513.812290,-79214.274493
12727.979630,3256.906145,3849.070898,-80899.684589
12727.982215,3997.112087,-1184.329507,-76762.768900
12727.984799,-5329.482782,-12435.459826,-77988.521696
12727.987384,6069.688724,-13915.871710,-77988.521696
12727.989969,740.205942,-15544.324782,-78448.178995
12727.992553,-2368.659014,-10955.047942,-78907.836294
12727.995138,6809.894666,-8734.430116,-79214.274493
12727.997723,-296.082377,444.123565,-77528.864398
12728.000307,-4737.318029,3256.906145,-78294.959896
12728.002892,1332.370696,3108.864956,-77988.521696
12728.005477,3552.988522,-10955.047942,-77682.083497
12728.008061,-3849.070898,-3256.906145,-75537.016103
12728.010646,-444.123565,-8438.347739,-80440.027290
12728.013231,3404.947333,-7254.018232,-77528.864398
12728.015815,-6513.812290,-8734.430116,-77222.426198
12728.018400,2220.617826,-7402.059420,-77375.645298
12728.020985,2072.576638,-7402.059420,-75537.016103
12728.023569,-4441.235652,-4441.235652,-76915.987999
12728.026154,-1628.453072,-9474.636058,-80593.246390
12728.028739,8290.306550,-10362.883188,-80133.589091
12728.031323,-5773.606348,-5773.606348,-76303.111601
12728.033908,-2516.700203,-2812.782580,-76762.768900
12728.036493,4885.359217,-3997.112087,-77528.864398
12728.039077,-3849.070898,6513.812290,-77988.521696
12728.041662,-2368.659014,11251.130318,-81359.341888
12728.044211,4589.276840,12139.377449,-77375.645298
12728.046760,-8734.430116,9474.636058,-76762.768900
12728.049310,-1332.370696,6661.853478,-77835.302597
12728.051859,5921.647536,-1480.411884,-78141.740796
12728.054408,2368.659014,-2220.617826,-76609.549800
12728.056957,-5181.441594,-296.082377,-78601.398095
12728.059506,10362.883188,-3108.864956,-80286.808190
12728.062056,-592.164754,5033.400406,-77682.083497
12728.064605,-2664.741391,8290.306550,-75843.454302
12728.067154,3552.988522,2368.659014,-78448.178995
12728.069703,2960.823768,5921.647536,-77835.302597
12728.072252,-6513.812290,6661.853478,-77528.864398
12728.074802,296.082377,7254.018232,-78601.398095
12728.077351,3108.864956,4737.318029,-78448.178995
12728.079900,-4293.194464,4737.318029,-75996.673402
12728.082449,-4737.318029,6513.812290,-78141.740796
12728.084998,6217.729913,4589.276840,-80593.246390
12728.087548,0.000000,7402.059420,-79214.274493
12728.090097,-3552.988522,-3404.947333,-79980.369991
12728.092646,4885.359217,-12287.418637,-78448.178995
12728.095195,2960.823768,-16580.613101,-74464.482406
12728.097744,-3552.988522,-14211.954086,-76915.987999
12728.100294,1332.370696,-14508.036463,-79673.931792
12728.102843,4885.359217,-2812.782580,-76456.330700
12728.105392,-5773.606348,-444.123565,-76762.768900
12728.107941,3404.947333,4293.194464,-76762.768900
12728.110490,1628.453072,-3256.906145,-76609.549800
12728.113040,-4737.318029,-740.205942,-75077.358804
12728.115589,2072.576638,-4293.194464,-78907.836294
12728.118138,3256.906145,-11695.253884,-79520.712692
12728.120687,-4441.235652,-9178.553681,-79061.055394
12728.123236,-1480.411884,-6809.894666,-78448.178995
12728.125786,5773.606348,-8882.471304,-77222.426198
12728.128335,-5329.482782,-3849.070898,-74770.920605
12728.130884,-3552.988522,-8142.265362,-78141.740796
12728.133433,3256.906145,-10362.883188,-79061.055394
12728.135982,-6957.935855,-8882.471304,-77222.426198
12728.138532,-3552.988522,-6217.729913,-77528.864398
12728.141081,6365.771101,-4441.235652,-76609.549800
12728.143630,3108.864956,3256.906145,-76303.111601
12728.146186,-3997.112087,7846.182985,-78294.959896
12728.148742,6365.771101,12287.418637,-79980.369991
12728.151298,1332.370696,12731.542202,-78448.178995
12728.153854,-2516.700203,11547.212695,-77222.426198
12728.156410,6217.729913,2516.700203,-79214.274493
12728.158966,2220.617826,2368.659014,-76762.768900
12728.161522,-4589.276840,-2072.576638,-76915.987999
12728.164079,-2516.700203,0.000000,-79214.274493
12728.166635,2960.823768,-9326.594869,-79980.369991
12728.169191,-4589.276840,14804.118840,-76149.892501
12728.171747,148.041188,592.164754,-79367.493593
12728.174303,2368.659014,7254.018232,-74004.825107
12728.176859,-7550.100608,4885.359217,-75996.673402
12728.179415,592.164754,7846.182985,-79520.712692
12728.181971,2664.741391,5181.441594,-78141.740796
12728.184527,-2516.700203,2960.823768,-77988.521696
12728.187083,-1480.411884,8438.347739,-77222.426198
12728.189639,4441.235652,1776.494261,-76915.987999
12728.192195,-2960.823768,8290.306550,-77682.083497
12728.194751,-2812.782580,2664.741391,-79827.150892
12728.197308,4737.318029,-8734.430116,-79214.274493
12728.199864,-3997.112087,-12287.418637,-76609.549800
12728.202420,-2812.782580,-15544.324782,-78754.617194
12728.204976,3404.947333,-15692.365970,-79061.055394
12728.207532,3256.906145,-9474.636058,-77069.207099
12728.210088,-3849.070898,-1776.494261,-78448.178995
12728.212644,4441.235652,2072.576638,-77528.864398
12728.215200,4885.359217,-1628.453072,-75537.016103
12728.217756,-5033.400406,-2220.617826,-77222.426198
12728.220312,7994.224174,-4737.318029,-78141.740796
12728.222868,2220.617826,-8734.430116,-77682.083497
12728.225424,-2960.823768,-2960.823768,-76762.768900
12728.227980,-2220.617826,-8142.265362,-79673.931792
12728.230537,2368.659014,-7994.224174,-75690.235202
12728.233093,-8586.388927,-9030.512492,-74311.263306
12728.235649,148.041188,-5329.482782,-76303.111601
12728.238205,1924.535449,-12139.377449,-79827.150892
12728.240761,-5477.523971,-7994.224174,-77988.521696
12728.243317,-1480.411884,-5181.441594,-79673.931792
12728.245873,2072.576638,-4441.235652,-76303.111601
12728.248435,-6365.771101,-888.247130,-75690.235202
12728.250997,-3108.864956,6513.812290,-79061.055394
12728.253559,4293.194464,8882.471304,-79061.055394
12728.256121,-1776.494261,15248.242405,-76456.330700
12728.258683,-1924.535449,10362.883188,-78448.178995
12728.261245,7105.977043,3404.947333,-79061.055394
12728.263807,-2516.700203,2368.659014,-76762.768900
12728.266369,148.041188,-296.082377,-77835.302597
12728.268932,3404.947333,-7846.182985,-78448.178995
12728.271494,-148.041188,4737.318029,-76456.330700
12728.274056,-7254.018232,1184.329507,-77988.521696
12728.276618,592.164754,8586.388927,-78294.959896
12728.279180,3552.988522,3404.947333,-77375.645298
12728.281742,-5773.606348,6957.935855,-76915.987999
12728.284304,4145.153275,5625.565159,-79520.712692
12728.286866,3849.070898,7550.100608,-76762.768900
12728.289428,-6069.688724,7402.059420,-77528.864398
12728.291990,5329.482782,4293.194464,-76456.330700
12728.294552,1776.494261,6513.812290,-76456.330700
12728.297114,-5033.400406,5477.523971,-75996.673402
12728.299676,-1776.494261,2516.700203,-79520.712692
12728.302238,3404.947333,-10807.006753,-79061.055394
12728.304800,-4737.318029,-13175.665768,-75690.235202
12728.307362,-3108.864956,-16136.489536,-77222.426198
12728.309925,5477.523971,-15692.365970,-77069.207099
12728.312487,-7994.224174,-8290.306550,-76915.987999
12728.315049,444.123565,-4885.359217,-79980.369991
12728.317611,1332.370696,1184.329507,-77375.645298
12728.320173,1628.453072,1184.329507,-76762.768900
12728.322735,-4441.235652,2072.576638,-78754.617194
12728.325297,6809.894666,-12583.501014,-79673.931792
12728.327859,-1628.453072,-9622.677246,-77682.083497
12728.330425,-2220.617826,-2664.741391,-78141.740796
12728.332991,4885.359217,-10214.842000,-80133.589091
12728.335557,2072.576638,-6069.688724,-77528.864398
12728.338123,-4441.235652,-11103.089130,-78601.398095
12728.340689,8734.430116,-4441.235652,-77375.645298
12728.343255,2664.741391,-8882.471304,-77528.864398
12728.345821,-3256.906145,-6661.853478,-78141.740796
12728.348387,296.082377,-7698.141797,-78448.178995
12728.350953,5033.400406,-5033.400406,-75537.016103
12728.353519,-4885.359217,1628.453072,-75230.577904
12728.356084,4885.359217,5477.523971,-78601.398095
12728.358650,1036.288319,12879.583391,-77069.207099
12728.361216,-3997.112087,14656.077652,-77069.207099
12728.363782,2664.741391,11547.212695,-77222.426198
12728.366348,6809.894666,1776.494261,-78601.398095
12728.368914,-6957.935855,148.041188,-76762.768900
12728.371480,148.041188,-1776.494261,-77682.083497
12728.374046,1036.288319,-4441.235652,-78907.836294
12728.376612,-2960.823768,-2072.576638,-77069.207099
12728.379178,-444.123565,2220.617826,-81512.560987
12728.381744,5625.565159,5329.482782,-77222.426198
12728.384310,-6365.771101,6365.771101,-75843.454302
12728.386876,-1924.535449,7994.224174,-75996.673402
12728.389442,4885.359217,6957.935855,-78754.617194
12728.392008,4885.359217,6217.729913,-77375.645298
12728.394574,-4441.235652,3256.906145,-77375.645298
12728.397140,5773.606348,4737.318029,-76149.892501
12728.399706,3997.112087,6365.771101,-76456.330700
12728.402272,-2368.659014,5921.647536,-79367.493593
12728.404838,9178.553681,740.205942,-80286.808190
12728.407404,0.000000,-10066.800811,-78294.959896
12728.409970,-5033.400406,-14063.912898,-75843.454302
12728.412536,1332.370696,-15840.407159,-77222.426198
12728.415102,3701.029710,-15840.407159,-78294.959896
12728.417668,-4145.153275,-9178.553681,-77069.207099
12728.420233,1776.494261,740.205942,-78907.836294
12728.422799,3701.029710,1332.370696,-76915.987999
12728.425365,-5921.647536,2960.823768,-75230.577904
12728.427931,1332.370696,-148.041188,-79367.493593
12728.430497,888.247130,-14211.954086,-77375.645298
12728.433033,1036.288319,-2960.823768,-75843.454302
12728.435568,-3256.906145,-6365.771101,-78601.398095
12728.438104,7994.224174,-9178.553681,-78448.178995
12728.440639,-2368.659014,-10955.047942,-77222.426198
12728.443175,-2516.700203,-5033.400406,-77375.645298
12728.445710,5625.565159,-9770.718434,-78601.398095
12728.448246,-2812.782580,-4441.235652,-75077.358804
12728.450781,-2516.700203,-7402.059420,-80440.027290
12728.453317,2960.823768,-8586.388927,-79367.493593
12728.455852,4737.318029,-1184.329507,-75996.673402
12728.458388,-4885.359217,3701.029710,-76609.549800
12728.460923,4589.276840,9030.512492,-80593.246390
12728.463459,3849.070898,13027.624579,-77222.426198
12728.465994,-5181.441594,14508.036463,-77069.207099
12728.468530,7254.018232,7105.977043,-79367.493593
12728.471065,3404.947333,6069.688724,-77835.302597
12728.473601,-2960.823768,-4589.276840,-78141.740796
12728.476136,6661.853478,-1184.329507,-78141.740796
12728.478672,2664.741391,592.164754,-77069.207099
12728.481207,-4885.359217,-444.123565,-76762.768900
12728.483743,-592.164754,6661.853478,-78601.398095
12728.486278,1628.453072,-296.082377,-77835.302597
12728.488814,-7402.059420,11991.336260,-74770.920605
12728.491349,-2960.823768,5033.400406,-79520.712692
12728.493885,2368.659014,9918.759623,-76915.987999
12728.496420,-6809.894666,5477.523971,-76915.987999
12728.498956,-3997.112087,8290.306550,-78294.959896
12728.501491,888.247130,8586.388927,-77988.521696
12728.504027,2072.576638,2072.576638,-78601.398095
12728.506562,-4441.235652,888.247130,-77528.864398
12728.509098,-2960.823768,-12583.501014,-79673.931792
12728.511633,1776.494261,-12435.459826,-75996.673402
12728.514169,-6809.894666,-18505.148550,-77682.083497
12728.516704,2812.782580,-13027.624579,-77988.521696
12728.519240,2960.823768,-10955.047942,-78294.959896
12728.521775,-4293.194464,-148.041188,-76915.987999
12728.524311,-3108.864956,2516.700203,-77988.521696
12728.526846,7550.100608,-296.082377,-79061.055394
12728.529382,-4293.194464,-7698.141797,-77375.645298
12728.531917,-1184.329507,-4737.318029,-76609.549800
12728.534462,4885.359217,-9474.636058,-77988.521696
12728.537008,-3404.947333,-6661.853478,-77835.302597
12728.539553,-4293.194464,-8142.265362,-79520.712692
12728.542098,3701.029710,-10807.006753,-77988.521696
12728.544643,-2516.700203,-7105.977043,-76303.111601
12728.547189,-6365.771101,-7402.059420,-76762.768900
12728.549734,5625.565159,-9030.512492,-77835.302597
12728.552279,2516.700203,-6957.935855,-77835.302597
12728.554824,-6809.894666,-5033.400406,-77682.083497
12728.557369,7994.224174,-2960.823768,-77988.521696
12728.559915,3701.029710,5329.482782,-76762.768900
12728.562460,-2664.741391,10658.965565,-77375.645298
12728.565005,5181.441594,14656.077652,-79980.369991
12728.567550,1480.411884,13175.665768,-77222.426198
12728.570096,-6217.729913,7698.141797,-76303.111601
12728.572641,2664.741391,-148.041188,-77988.521696
12728.575186,3997.112087,-3552.988522,-77682.083497
12728.577731,-5625.565159,-2960.823768,-75996.673402
12728.580277,-1628.453072,1480.411884,-79673.931792
12728.582822,3701.029710,-2664.741391,-78754.617194
12728.585367,-5181.441594,10362.883188,-75843.454302
12728.587912,-2516.700203,6217.729913,-77835.302597
12728.590458,1480.411884,6217.729913,-76915.987999
12728.593003,-444.123565,8290.306550,-79214.274493
12728.595548,-3256.906145,6661.853478,-79673.931792
12728.598093,8438.347739,2960.823768,-79520.712692
12728.600639,-1332.370696,5329.482782,-76609.549800
12728.603184,-5033.400406,6513.812290,-77222.426198
12728.605729,6365.771101,5329.482782,-79367.493593
12728.608274,-1036.288319,-1628.453072,-77988.521696
12728.610819,-2664.741391,-7105.977043,-77835.302597
12728.613365,6661.853478,-18949.272115,-78754.617194
12728.615910,2072.576638,-15988.448347,-76456.330700
12728.618455,-6217.729913,-17024.736666,-78448.178995
12728.621000,4293.194464,-5329.482782,-77835.302597
12728.623546,2516.700203,-1628.453072,-77835.302597
12728.626091,-5625.565159,3701.029710,-75230.577904
12728.628636,1628.453072,-1184.329507,-79061.055394
12728.631181,3256.906145,444.123565,-76303.111601
12728.633727,-5329.482782,-7254.018232,-76149.892501
12728.636280,-2072.576638,-4885.359217,-77988.521696
12728.638834,2664.741391,-8882.471304,-77375.645298
12728.641387,-4441.235652,-11103.089130,-77835.302597
12728.643941,-1924.535449,-8586.388927,-78907.836294
12728.646495,7105.977043,-9326.594869,-77682.083497
12728.649048,-3849.070898,-4145.153275,-75690.235202
12728.651602,-3552.988522,-7846.182985,-79214.274493
12728.654155,3997.112087,-6809.894666,-79061.055394
12728.656709,-5773.606348,-6069.688724,-76456.330700
12728.659263,-4441.235652,5181.441594,-76149.892501
12728.661816,7105.977043,3256.906145,-78448.178995
12728.664370,3701.029710,15100.201217,-76303.111601
12728.666923,-4441.235652,12583.501014,-78754.617194
12728.669477,6957.935855,15692.365970,-77069.207099
12728.672031,-296.082377,1924.535449,-77682.083497
12728.674584,-3108.864956,1924.535449,-77069.207099
12728.677138,2960.823768,-8142.265362,-80286.808190
12728.679691,2220.617826,5477.523971,-75843.454302
12728.682245,-7402.059420,3552.988522,-77069.207099
12728.684799,-1184.329507,-3552.988522,-80899.684589
12728.687352,3108.864956,13027.624579,-75230.577904
12728.689906,-5033.400406,888.247130,-75996.673402
12728.692460,-2368.659014,14211.954086,-77988.521696
12728.695013,2516.700203,1628.453072,-78601.398095
12728.697567,-4737.318029,9918.759623,-76456.330700
12728.700120,-1184.329507,148.041188,-78448.178995
12728.702674,4737.318029,8438.347739,-75230.577904
12728.705228,-2664.741391,5329.482782,-75996.673402
12728.707781,1036.288319,2960.823768,-78448.178995
12728.710335,5773.606348,-11843.295072,-78907.836294
12728.712888,-148.041188,-9326.594869,-76303.111601
12728.715442,-5921.647536,-17468.860231,-78448.178995
12728.717996,4589.276840,-16876.695478,-77835.302597
12728.720549,-2516.700203,-10807.006753,-77222.426198
12728.723103,-1332.370696,-1628.453072,-78907.836294
12728.725656,6217.729913,-1184.329507,-79827.150892
12728.728210,4145.153275,1332.370696,-75843.454302
12728.730764,-6809.894666,-5625.565159,-78141.740796
12728.733317,5329.482782,-5625.565159,-80286.808190
12728.735871,4293.194464,-9178.553681,-76762.768900
12728.738430,-3108.864956,-3256.906145,-75843.454302
12728.740990,3849.070898,-9918.759623,-80133.589091
12728.743549,5477.523971,-9622.677246,-78141.740796
12728.746108,-5033.400406,-8438.347739,-77375.645298
12728.748668,7550.100608,-10066.800811,-77988.521696
12728.751227,1776.494261,-10362.883188,-76762.768900
12728.753787,-5625.565159,-6365.771101,-77069.207099
12728.756346,-1776.494261,-3701.029710,-78601.398095
12728.758905,2960.823768,-1184.329507,-78754.617194
12728.761465,-5329.482782,7994.224174,-76303.111601
12728.764024,-3256.906145,11251.130318,-77988.521696
12728.766584,2812.782580,13619.789333,-76609.549800
12728.769143,-8586.388927,13767.830521,-76149.892501
12728.771702,0.000000,7994.224174,-78448.178995
12728.774262,5181.441594,-3849.070898,-79214.274493
12728.776821,296.082377,148.041188,-76915.987999
12728.779381,-5181.441594,-3108.864956,-78601.398095
12728.781940,4885.359217,-1776.494261,-80440.027290
12728.784499,2664.741391,3256.906145,-79061.055394
12728.787059,-2664.741391,5477.523971,-79367.493593
12728.789618,8882.471304,7846.182985,-77069.207099
12728.792178,-1036.288319,5921.647536,-76609.549800
12728.794737,-2072.576638,9474.636058,-77069.207099
12728.797297,1776.494261,5033.400406,-79520.712692
12728.799856,2368.659014,7254.018232,-77069.207099
12728.802415,-7254.018232,6513.812290,-75383.797003
12728.804975,1184.329507,7402.059420,-77835.302597
12728.807534,3849.070898,2664.741391,-75843.454302
12728.810094,-5477.523971,-10362.883188,-78907.836294
12728.812653,4885.359217,-12139.377449,-79520.712692
12728.815212,3108.864956,-16876.695478,-77375.645298
12728.817772,-5181.441594,-14211.954086,-77988.521696
12728.820331,-1924.535449,-9622.677246,-79980.369991
12728.822891,5033.400406,-2220.617826,-77375.645298
12728.825450,-6069.688724,2072.576638,-76915.987999
12728.828009,-3849.070898,4145.153275,-79214.274493
12728.830569,1776.494261,-7846.182985,-78448.178995
12728.833128,-3701.029710,-1924.535449,-75077.358804
12728.835688,-1332.370696,-11103.089130,-79827.150892
12728.838247,5033.400406,-10362.883188,-78448.178995
12728.840811,1628.453072,-7550.100608,-77528.864398
12728.843376,-4441.235652,-11251.130318,-76915.987999
12728.845940,7402.059420,-8438.347739,-76915.987999
12728.848504,3552.988522,-7550.100608,-76609.549800
12728.851069,-3108.864956,-5329.482782,-77988.521696
12728.853633,6513.812290,-8734.430116,-79673.931792
12728.856197,3108.864956,-3849.070898,-76456.330700
12728.858762,-3404.947333,592.164754,-78448.178995
12728.861326,6809.894666,7994.224174,-78448.178995
12728.863890,2072.576638,12879.583391,-77222.426198
12728.866455,-6661.853478,14952.160028,-76762.768900
12728.869019,1036.288319,13619.789333,-77528.864398
12728.871583,3256.906145,1776.494261,-77528.864398
12728.874148,-5329.482782,-740.205942,-77222.426198
12728.876712,2220.617826,-4737.318029,-78754.617194
12728.879276,1776.494261,-6217.729913,-76915.987999
12728.881841,-4145.153275,3997.112087,-74924.139704
12728.884405,1184.329507,6661.853478,-77988.521696
12728.886969,7550.100608,5181.441594,-77682.083497
12728.889534,-1036.288319,6513.812290,-77222.426198
12728.892098,-2664.741391,9770.718434,-77988.521696
12728.894662,5921.647536,6069.688724,-79673.931792
12728.897227,-888.247130,5921.647536,-77375.645298
12728.899791,-2368.659014,8142.265362,-79673.931792
12728.902355,5773.606348,3404.947333,-77528.864398
12728.904920,-5329.482782,7698.141797,-76149.892501
12728.907484,-4293.194464,-5773.606348,-78907.836294
12728.910049,3849.070898,-10807.006753,-78601.398095
12728.912613,3701.029710,-14656.077652,-76915.987999
12728.915177,-4293.194464,-11991.336260,-75843.454302
12728.917742,-2368.659014,-15692.365970,-80440.027290
12728.920306,3997.112087,-6661.853478,-76762.768900
12728.922870,-4885.359217,-1628.453072,-77375.645298
12728.925435,-2664.741391,8290.306550,-78754.617194
12728.927999,3701.029710,0.000000,-78448.178995
12728.930563,-4145.153275,-6809.894666,-78294.959896
12728.933128,-3552.988522,-2664.741391,-77069.207099
12728.935692,7402.059420,-13915.871710,-78141.740796
12728.938256,2368.659014,-4885.359217,-75843.454302
12728.940821,-4737.318029,-13619.789333,-79061.055394
12728.943389,7846.182985,-7254.018232,-78294.959896
12728.945958,2072.576638,-10066.800811,-76456.330700
12728.948526,-3108.864956,-3701.029710,-77682.083497
12728.951095,6661.853478,-6957.935855,-80746.465489
12728.953663,-740.205942,-7402.059420,-77988.521696
12728.956232,-5329.482782,3404.947333,-77222.426198
12728.958800,0.000000,3256.906145,-80593.246390
12728.961369,3849.070898,12731.542202,-76456.330700
12728.963937,-7105.977043,12287.418637,-75843.454302
12728.966506,296.082377,15248.242405,-77375.645298
12728.969074,1628.453072,5329.482782,-78141.740796
12728.971643,-6069.688724,888.247130,-77222.426198
12728.974211,-1776.494261,-4441.235652,-78601.398095
12728.976780,5921.647536,3108.864956,-79367.493593
12728.979349,-1036.288319,888.247130,-78141.740796
12728.981917,-2368.659014,-5329.482782,-79673.931792
12728.984486,7402.059420,11399.171507,-77682.083497
12728.987054,-2516.700203,5773.606348,-76456.330700
12728.989623,-2220.617826,13323.706956,-77988.521696
12728.992191,3997.112087,4441.235652,-78448.178995
12728.994760,-1332.370696,8586.388927,-77375.645298
12728.997328,-2220.617826,5625.565159,-79827.150892
12728.999897,3256.906145,4293.194464,-78601.398095
12729.002465,4737.318029,8290.306550,-77222.426198
12729.005034,-4589.276840,-6217.729913,-79980.369991
12729.007602,5033.400406,-10362.883188,-78754.617194
12729.010171,2072.576638,-16284.530724,-77069.207099
12729.012739,-5181.441594,-13915.871710,-76303.111601
12729.015308,1924.535449,-18061.024985,-78907.836294
12729.017877,3997.112087,-6217.729913,-77222.426198
12729.020445,-5329.482782,-1036.288319,-77375.645298
12729.023014,-148.041188,5773.606348,-77835.302597
12729.025582,1332.370696,-5477.523971,-76609.549800
12729.028151,-4589.276840,1332.370696,-74770.920605
12729.030719,-1184.329507,-9770.718434,-79827.150892
12729.033288,3552.988522,-6069.688724,-75996.673402
12729.035856,-6513.812290,-11399.171507,-76149.892501
12729.038425,-3256.906145,-8734.430116,-78448.178995
12729.040993,1628.453072,-13027.624579,-76915.987999
12729.043562,-6217.729913,-7846.182985,-75690.235202
12729.046100,-3552.988522,-6957.935855,-79367.493593
12729.048639,7105.977043,-7402.059420,-79214.274493
12729.051177,148.041188,-5477.523971,-77222.426198
12729.053715,-2960.823768,1776.494261,-78141.740796
12729.056254,7698.141797,1776.494261,-80593.246390
12729.058792,-1184.329507,14508.036463,-77375.645298
12729.061330,-4441.235652,13619.789333,-78907.836294
12729.063869,4293.194464,13915.871710,-77528.864398
12729.066407,3256.906145,4589.276840,-75077.358804
12729.068946,-6365.771101,-2664.741391,-77682.083497
12729.071484,0.000000,-1924.535449,-77375.645298
12729.074022,3108.864956,-444.123565,-76762.768900
12729.076561,-6809.894666,-2368.659014,-76762.768900
12729.079099,3849.070898,6957.935855,-78448.178995
12729.081637,3701.029710,-296.082377,-76762.768900
12729.084176,-4145.153275,10066.800811,-75690.235202
12729.086714,4293.194464,9326.594869,-78601.398095
12729.089253,4145.153275,9178.553681,-78601.398095
12729.091791,-3108.864956,6957.935855,-77375.645298
12729.094329,-2516.700203,7994.224174,-78601.398095
12729.096868,3552.988522,5181.441594,-78754.617194
12729.099406,-3701.029710,6069.688724,-76456.330700
12729.101944,-2960.823768,-4737.318029,-79214.274493
12729.104483,2664.741391,-14211.954086,-77835.302597
12729.107021,-6513.812290,-15248.242405,-78141.740796
12729.109559,-1036.288319,-17172.777854,-78754.617194
12729.112098,4441.235652,-13767.830521,-79673.931792
12729.114636,4293.194464,-6069.688724,-76762.768900
12729.117175,-4145.153275,2664.741391,-77375.645298
12729.119713,7254.018232,-888.247130,-77682.083497
12729.122251,2664.741391,4145.153275,-75537.016103
12729.124790,-1480.411884,-2368.659014,-77835.302597
12729.127328,5773.606348,-15248.242405,-79673.931792
12729.129866,2812.782580,-4589.276840,-76303.111601
12729.132405,-5773.606348,-9030.512492,-78754.617194
12729.134943,-2072.576638,-10362.883188,-78294.959896
12729.137482,2072.576638,-10658.965565,-77222.426198
12729.140020,-4441.235652,-8882.471304,-76915.987999
12729.142558,-2516.700203,-6069.688724,-77682.083497
12729.145097,2516.700203,-6069.688724,-77222.426198
12729.147644,-6661.853478,-5033.400406,-76915.987999
12729.150191,148.041188,740.205942,-79061.055394
12729.152739,3256.906145,6217.729913,-77682.083497
12729.155286,-5033.400406,12583.501014,-75996.673402
12729.157833,-2516.700203,14211.954086,-79520.712692
12729.160380,4737.318029,11251.130318,-77375.645298
12729.162928,-1776.494261,5181.441594,-76456.330700
12729.165475,-3404.947333,-296.082377,-78448.178995
12729.168022,3701.029710,-5181.441594,-79367.493593
12729.170570,-1628.453072,-1776.494261,-77528.864398
12729.173117,-1776.494261,-1480.411884,-78907.836294
12729.175664,6365.771101,7105.977043,-76762.768900
12729.178212,-740.205942,5477.523971,-77222.426198
12729.180759,-5181.441594,8438.347739,-77222.426198
12729.183306,3108.864956,10658.965565,-79827.150892
12729.185853,2664.741391,9918.759623,-78294.959896
12729.188401,-5625.565159,5773.606348,-77375.645298
12729.190948,2812.782580,4885.359217,-78448.178995
12729.193495,3256.906145,6365.771101,-75843.454302
12729.196043,-5921.647536,2960.823768,-78141.740796
12729.198590,4589.276840,-10214.842000,-79061.055394
12729.201137,3849.070898,-11695.253884,-76915.987999
12729.203685,-8290.306550,-18209.066173,-77375.645298
12729.206232,-3997.112087,-13619.789333,-77988.521696
12729.208779,3552.988522,-16136.489536,-78294.959896
12729.211327,-5773.606348,-148.041188,-75077.358804
12729.213874,-444.123565,-1036.288319,-79214.274493
12729.216421,1184.329507,148.041188,-75996.673402
12729.218968,-5921.647536,4293.194464,-76303.111601
12729.221516,-1184.329507,-9622.677246,-77988.521696
12729.224063,3849.070898,-10510.924376,-80899.684589
12729.226610,2960.823768,-4293.194464,-75690.235202
12729.229158,-5625.565159,-13323.706956,-77682.083497
12729.231705,7105.977043,-10807.006753,-79061.055394
12729.234252,1628.453072,-10955.047942,-77988.521696
12729.236800,-2812.782580,-4293.194464,-78448.178995
12729.239347,6069.688724,-8734.430116,-79061.055394
12729.241894,1480.411884,-2812.782580,-76915.987999
12729.244441,-5181.441594,-5329.482782,-79520.712692
12729.246989,9770.718434,5181.441594,-78907.836294
12729.249544,4885.359217,11103.089130,-76915.987999
12729.252099,-4293.194464,17320.819043,-77375.645298
12729.254653,2220.617826,11695.253884,-78141.740796
12729.257208,3997.112087,9030.512492,-74924.139704
12729.259763,-7402.059420,-1628.453072,-75843.454302
12729.262318,4589.276840,-4441.235652,-77222.426198
12729.264873,3997.112087,1332.370696,-78754.617194
12729.267428,-3701.029710,-888.247130,-79520.712692
12729.269983,-2220.617826,-4737.318029,-82278.656485
12729.272538,4737.318029,5921.647536,-76915.987999
12729.275093,-5033.400406,7550.100608,-75383.797003
12729.277647,-2368.659014,13619.789333,-78294.959896
12729.280202,1776.494261,8734.430116,-79367.493593
12729.282757,-4737.318029,5625.565159,-78141.740796
12729.285312,-2072.576638,9326.594869,-79367.493593
12729.287867,5625.565159,2220.617826,-77835.302597
12729.290422,-3849.070898,8142.265362,-75996.673402
12729.292977,-6069.688724,-11399.171507,-78448.178995
12729.295532,7994.224174,-14359.995275,-78448.178995
12729.298087,2960.823768,-19097.313304,-77528.864398
12729.300642,-3108.864956,-12731.542202,-77528.864398
12729.303196,5921.647536,-16284.530724,-79061.055394
12729.305751,4293.194464,-2368.659014,-76915.987999
12729.308306,-2812.782580,1628.453072,-77988.521696
12729.310861,6069.688724,4441.235652,-77375.645298
12729.313416,592.164754,-4145.153275,-77222.426198
12729.315971,-5921.647536,-1924.535449,-76303.111601
12729.318526,-1332.370696,-9178.553681,-79673.931792
12729.321081,2220.617826,-9178.553681,-77835.302597
12729.323636,-5181.441594,-9770.718434,-74924.139704
12729.326190,-3256.906145,-11547.212695,-77222.426198
12729.328745,1776.494261,-11547.212695,-77835.302597
12729.331300,148.041188,-9770.718434,-77682.083497
12729.333855,-3108.864956,-2812.782580,-79367.493593
12729.336410,2220.617826,-10510.924376,-79980.369991
12729.338965,2368.659014,4589.276840,-77069.207099
12729.341520,-7402.059420,4737.318029,-77835.302597
12729.344075,1924.535449,15100.201217,-77988.521696
12729.346630,2664.741391,13471.748144,-77528.864398
12729.349185,-5477.523971,15692.365970,-76149.892501
12729.351745,-296.082377,4737.318029,-79061.055394
12729.354305,3552.988522,-296.082377,-75383.797003
12729.356866,-6661.853478,-7846.182985,-77222.426198
12729.359426,5033.400406,3404.947333,-78907.836294
12729.361987,3256.906145,-5773.606348,-78294.959896
12729.364547,-3108.864956,6365.771101,-76303.111601
12729.367108,-2368.659014,3997.112087,-78448.178995
12729.369668,6069.688724,9178.553681,-77835.302597
12729.372228,-2220.617826,10362.883188,-77835.302597
12729.374789,-2960.823768,10214.842000,-80133.589091
12729.377349,3552.988522,5477.523971,-79061.055394
12729.379910,-5329.482782,5033.400406,-76915.987999
12729.382470,-1628.453072,9030.512492,-77222.426198
12729.385031,5181.441594,-3701.029710,-78754.617194
12729.387591,4885.359217,-8586.388927,-76303.111601
12729.390151,-5181.441594,-17764.942608,-78907.836294
12729.392712,5181.441594,-18949.272115,-79214.274493
12729.395272,148.041188,-15988.448347,-76609.549800
12729.397833,-2220.617826,-8586.388927,-77375.645298
12729.400393,6957.935855,-2664.741391,-78141.740796
12729.402954,1628.453072,5329.482782,-77375.645298
12729.405514,-4589.276840,5033.400406,-77528.864398
12729.408075,-1036.288319,-1480.411884,-78907.836294
12729.410635,1776.494261,-13915.871710,-79061.055394
12729.413195,-4589.276840,-3256.906145,-75230.577904
12729.415756,-3552.988522,-10066.800811,-79214.274493
12729.418316,1924.535449,-12435.459826,-77069.207099
12729.420877,-8290.306550,-12731.542202,-76915.987999
12729.423437,-592.164754,-7698.141797,-77375.645298
12729.425998,2072.576638,-9178.553681,-78754.617194
12729.428558,-6217.729913,-4145.153275,-77069.207099
12729.431118,-4885.359217,-5477.523971,-78907.836294
12729.433679,6809.894666,2664.741391,-77528.864398
12729.436239,-592.164754,7846.182985,-77069.207099
12729.438800,-2812.782580,16876.695478,-78907.836294
12729.441360,6661.853478,11547.212695,-80286.808190
12729.443921,-1184.329507,15248.242405,-75383.797003
12729.446481,-3552.988522,3552.988522,-77682.083497
12729.449041,4589.276840,-3404.947333,-76915.987999
12729.451602,-1036.288319,-7105.977043,-76303.111601
12729.454167,-5477.523971,2072.576638,-77835.302597
12729.456732,592.164754,5921.647536,-79214.274493
12729.459297,296.082377,888.247130,-78601.398095
12729.461862,-7105.977043,7994.224174,-76303.111601
12729.464427,5181.441594,10066.800811,-77375.645298
12729.466992,4737.318029,12731.542202,-77988.521696
12729.469557,-5033.400406,9326.594869,-79367.493593
12729.472122,4589.276840,5625.565159,-79520.712692
12729.474687,2960.823768,3256.906145,-77682.083497
12729.477252,-5773.606348,9030.512492,-75230.577904
12729.479817,-2072.576638,-8142.265362,-78448.178995
12729.482382,3997.112087,-15100.201217,-76915.987999
12729.484947,-8290.306550,-18653.189738,-77222.426198
12729.487512,-1480.411884,-17172.777854,-78601.398095
12729.490077,1480.411884,-17912.983796,-78448.178995
12729.492642,-2664.741391,-2960.823768,-75996.673402
12729.495206,-592.164754,740.205942,-79061.055394
12729.497771,7105.977043,1776.494261,-78294.959896
12729.500336,-592.164754,3552.988522,-76456.330700
12729.502901,-2664.741391,-5773.606348,-77835.302597
12729.505466,7105.977043,-9326.594869,-79520.712692
12729.508031,1776.494261,-9030.512492,-76609.549800
12729.510596,-5477.523971,-10510.924376,-78601.398095
12729.513161,6809.894666,-15840.407159,-78601.398095
12729.515726,1480.411884,-10807.006753,-75996.673402
12729.518291,-4293.194464,-5181.441594,-78141.740796
12729.520856,1036.288319,-5477.523971,-79061.055394
12729.523421,2664.741391,-4145.153275,-77069.207099
12729.525986,-5181.441594,-2368.659014,-77835.302597
12729.528551,1184.329507,6365.771101,-77988.521696
12729.531116,5181.441594,10362.883188,-76149.892501
12729.533681,-4737.318029,18505.148550,-76303.111601
12729.536249,0.000000,12287.418637,-77988.521696
12729.538818,2220.617826,10066.800811,-75077.358804
12729.541387,-5329.482782,-740.205942,-75537.016103
12729.543956,-4145.153275,-3849.070898,-78294.959896
12729.546525,7254.018232,-5181.441594,-79214.274493
12729.549094,-3404.947333,3849.070898,-76915.987999
12729.551663,-5773.606348,5181.441594,-80286.808190
12729.554232,4293.194464,740.205942,-79673.931792
12729.556801,-7698.141797,11103.089130,-75077.358804
