#time,accel_x,accel_y,accel_z
702.281932,148.041188,-1184.329507,-78601.398095
702.284515,-444.123565,-1628.453072,-79520.712692
702.287097,296.082377,-1184.329507,-78601.398095
702.289680,-1184.329507,-1184.329507,-79214.274493
702.292263,148.041188,-1776.494261,-79214.274493
702.294845,296.082377,-1036.288319,-78754.617194
702.297428,-148.041188,-1184.329507,-79214.274493
702.300010,1776.494261,-1628.453072,-78907.836294
702.302593,-1776.494261,-1184.329507,-79367.493593
702.305176,8290.306550,-1924.535449,-78601.398095
702.307758,-4441.235652,1480.411884,-80593.246390
702.310341,3404.947333,-2516.700203,-78448.178995
702.312924,6957.935855,-3256.906145,-79367.493593
702.315506,8882.471304,-1628.453072,-77222.426198
702.318089,2516.700203,-1036.288319,-78754.617194
702.320672,888.247130,-1184.329507,-77222.426198
702.323254,-1924.535449,-3256.906145,-78141.740796
702.325837,3997.112087,-1776.494261,-78754.617194
702.328428,4589.276840,-740.205942,-80899.684589
702.331020,7994.224174,-444.123565,-80286.808190
702.333611,3108.864956,-1480.411884,-78907.836294
702.336202,-7994.224174,-1184.329507,-77682.083497
702.338793,-14211.954086,-740.205942,-78294.959896
702.341385,-5033.400406,-1924.535449,-78907.836294
702.343976,1036.288319,-888.247130,-79673.931792
702.346567,3849.070898,-1036.288319,-80133.589091
702.349158,2516.700203,-888.247130,-79367.493593
702.351750,-3108.864956,-1776.494261,-78294.959896
702.354341,-7254.018232,-1776.494261,-78601.398095
702.356932,-1184.329507,-888.247130,-79214.274493
702.359523,-7994.224174,-296.082377,-80899.684589
702.362115,2072.576638,-2368.659014,-77528.864398
702.364706,5033.400406,-888.247130,-79520.712692
702.367297,-7550.100608,-1628.453072,-81359.341888
702.369888,-2812.782580,0.000000,-80593.246390
702.372480,-1184.329507,-1480.411884,-78294.959896
702.375071,-2516.700203,-740.205942,-76456.330700
702.377662,2812.782580,-2220.617826,-78754.617194
702.380254,-6513.812290,-1480.411884,-79520.712692
702.382845,-5477.523971,296.082377,-78754.617194
702.385436,-11251.130318,-3701.029710,-81512.560987
702.388027,-9918.759623,1036.288319,-77682.083497
702.390619,-2368.659014,-3404.947333,-78448.178995
702.393210,-888.247130,-1184.329507,-78141.740796
702.395801,1924.535449,-1184.329507,-81512.560987
702.398392,-2516.700203,-592.164754,-79980.369991
702.400984,-4145.153275,-444.123565,-78907.836294
702.403575,-6513.812290,-1776.494261,-79520.712692
702.406166,-5181.441594,-740.205942,-79673.931792
702.408757,-3552.988522,-1036.288319,-79061.055394
702.411349,3552.988522,-888.247130,-77682.083497
702.413940,-592.164754,-1924.535449,-78907.836294
702.416531,-5477.523971,-1628.453072,-79061.055394
702.419123,-8142.265362,-1036.288319,-79520.712692
702.421714,-444.123565,-444.123565,-78448.178995
702.424305,11251.130318,-1184.329507,-78601.398095
702.426896,14211.954086,-1332.370696,-79980.369991
702.429488,3256.906145,-740.205942,-79214.274493
702.432079,-296.082377,-888.247130,-79827.150892
702.434670,-9178.553681,-1776.494261,-79061.055394
702.437261,-1924.535449,-1036.288319,-79367.493593
702.439853,2960.823768,-1036.288319,-79367.493593
702.442444,14804.118840,-740.205942,-77988.521696
702.445035,6365.771101,-1776.494261,-78907.836294
702.447627,-444.123565,-1184.329507,-78754.617194
702.450218,-1924.535449,-1184.329507,-78907.836294
702.452809,-4737.318029,-148.041188,-78907.836294
702.455401,-148.041188,-1036.288319,-79520.712692
702.457992,2960.823768,-2368.659014,-77835.302597
702.460583,13027.624579,148.041188,-77222.426198
702.463174,3997.112087,-1480.411884,-79214.274493
702.465766,888.247130,-2664.741391,-75996.673402
702.468357,-8142.265362,-3108.864956,-78448.178995
702.470948,2812.782580,148.041188,-79367.493593
702.473540,4589.276840,-888.247130,-80746.465489
702.476131,-4441.235652,-2368.659014,-79520.712692
702.478722,7254.018232,-592.164754,-78907.836294
702.481314,-2664.741391,-148.041188,-78448.178995
702.483905,5329.482782,-2220.617826,-78294.959896
702.486496,3849.070898,-2368.659014,-79980.369991
702.489087,11399.171507,-888.247130,-77069.207099
702.491679,3997.112087,-1036.288319,-79673.931792
702.494270,-148.041188,-888.247130,-78907.836294
702.496861,-2664.741391,-1628.453072,-79980.369991
702.499453,2368.659014,-1628.453072,-79214.274493
702.502044,5033.400406,-1332.370696,-78448.178995
702.504635,10955.047942,-740.205942,-78294.959896
702.507226,5181.441594,-1628.453072,-78601.398095
702.509818,1628.453072,-740.205942,-79214.274493
702.512409,-6809.894666,-2516.700203,-79061.055394
702.515000,-2664.741391,-1628.453072,-79827.150892
702.517592,5625.565159,-2368.659014,-79980.369991
702.520183,11103.089130,-1184.329507,-78754.617194
702.522774,-1480.411884,-1776.494261,-79061.055394
702.525366,-8438.347739,-888.247130,-78294.959896
702.527957,-9622.677246,-2812.782580,-78907.836294
702.530548,-4293.194464,-296.082377,-78754.617194
702.533139,2812.782580,-2368.659014,-80286.808190
702.535729,4441.235652,-592.164754,-79214.274493
702.538319,-2072.576638,-2516.700203,-79520.712692
702.540909,-9770.718434,-1036.288319,-79061.055394
702.543499,-9918.759623,-2220.617826,-77835.302597
702.546089,-3701.029710,-1036.288319,-79367.493593
702.548679,4145.153275,-2664.741391,-77375.645298
702.551269,2516.700203,-1628.453072,-76456.330700
702.553859,-3256.906145,-1184.329507,-79520.712692
702.556449,-8438.347739,-1480.411884,-79214.274493
702.559038,-5921.647536,-148.041188,-78601.398095
702.561628,-5625.565159,-3404.947333,-78294.959896
702.564218,592.164754,-1184.329507,-78448.178995
702.566808,2516.700203,-1184.329507,-80593.246390
702.569398,-2812.782580,-3256.906145,-79214.274493
702.571988,-1184.329507,-1036.288319,-77835.302597
702.574578,-2960.823768,-2516.700203,-78754.617194
702.577168,-296.082377,148.041188,-77835.302597
702.579758,-7254.018232,-3256.906145,-78294.959896
702.582348,-1036.288319,-1184.329507,-77682.083497
702.584937,-11695.253884,-1924.535449,-79367.493593
702.587527,-6661.853478,-1628.453072,-78907.836294
702.590117,-3404.947333,-740.205942,-78907.836294
702.592707,444.123565,-2368.659014,-79827.150892
702.595297,740.205942,148.041188,-79367.493593
702.597887,-444.123565,-2220.617826,-79827.150892
702.600477,-6069.688724,148.041188,-78294.959896
702.603067,-10362.883188,-1480.411884,-80133.589091
702.605657,-6069.688724,-1036.288319,-79520.712692
702.608247,-888.247130,-1776.494261,-79520.712692
702.610837,2516.700203,-1480.411884,-78601.398095
702.613426,-3849.070898,-1924.535449,-79061.055394
702.616016,-5033.400406,-444.123565,-78754.617194
702.618606,1924.535449,-1628.453072,-78907.836294
702.621196,7994.224174,-2664.741391,-79520.712692
702.623786,10214.842000,-148.041188,-78601.398095
702.626376,2960.823768,-2220.617826,-78601.398095
702.628966,-740.205942,-1332.370696,-77682.083497
702.631556,-8438.347739,-1628.453072,-79673.931792
702.634146,2220.617826,-592.164754,-79673.931792
702.636736,5921.647536,-1332.370696,-79367.493593
702.639324,14063.912898,-1332.370696,-78601.398095
702.641912,3701.029710,-1480.411884,-78754.617194
702.644501,444.123565,-1036.288319,-79214.274493
702.647089,-3256.906145,-740.205942,-79061.055394
702.649678,-1036.288319,-444.123565,-77988.521696
702.652266,-2072.576638,-2220.617826,-78754.617194
702.654854,15840.407159,-2516.700203,-77682.083497
702.657443,5773.606348,-1184.329507,-78294.959896
702.660031,0.000000,-1184.329507,-79520.712692
702.662620,148.041188,-888.247130,-80746.465489
702.665208,-3849.070898,-2368.659014,-80593.246390
702.667796,4885.359217,-888.247130,-77835.302597
702.670385,7994.224174,0.000000,-81206.122788
702.672973,-1480.411884,-1776.494261,-78601.398095
702.675562,5181.441594,-148.041188,-78754.617194
702.678150,-2812.782580,-2368.659014,-80440.027290
702.680738,10214.842000,-1776.494261,-78448.178995
702.683327,7846.182985,-1036.288319,-77682.083497
702.685915,4885.359217,-1628.453072,-77682.083497
702.688504,-1184.329507,-1628.453072,-79520.712692
702.691092,-592.164754,-148.041188,-78294.959896
702.693680,592.164754,-1628.453072,-79214.274493
702.696269,7698.141797,-1332.370696,-79520.712692
702.698857,6217.729913,-1036.288319,-79061.055394
702.701446,6217.729913,-1036.288319,-79367.493593
702.704034,-6513.812290,-1776.494261,-79827.150892
702.706622,-3849.070898,-592.164754,-79061.055394
702.709211,-1184.329507,-2812.782580,-80286.808190
702.711799,9770.718434,-1036.288319,-79367.493593
702.714388,0.000000,-1184.329507,-78907.836294
702.716976,-6513.812290,-592.164754,-77682.083497
702.719564,-14656.077652,-1776.494261,-78448.178995
702.722153,-4145.153275,-592.164754,-79827.150892
702.724741,-1924.535449,-1776.494261,-80899.684589
702.727330,5921.647536,0.000000,-79061.055394
702.729918,2664.741391,-2664.741391,-78754.617194
702.732506,-10066.800811,-3256.906145,-79214.274493
702.735095,-13027.624579,740.205942,-79673.931792
702.737683,-6365.771101,-3108.864956,-80440.027290
702.740271,0.000000,0.000000,-77375.645298
702.742756,4885.359217,-4293.194464,-79061.055394
702.745241,3849.070898,888.247130,-78294.959896
702.747725,-592.164754,-1776.494261,-81512.560987
702.750210,-11251.130318,740.205942,-81206.122788
702.752694,-4589.276840,-2812.782580,-79520.712692
702.755179,4737.318029,-1480.411884,-80746.465489
702.757663,-2516.700203,-1924.535449,-80899.684589
702.760148,2072.576638,444.123565,-79520.712692
702.762632,-11843.295072,-3552.988522,-76609.549800
702.765117,4293.194464,-444.123565,-76762.768900
702.767601,-4293.194464,-3997.112087,-77835.302597
702.770086,3256.906145,296.082377,-79980.369991
702.772570,-7105.977043,-1628.453072,-76456.330700
702.775055,-7254.018232,-3108.864956,-77835.302597
702.777539,-10362.883188,-592.164754,-80899.684589
702.780024,-2072.576638,-1332.370696,-81206.122788
702.782508,444.123565,-1184.329507,-80440.027290
702.784993,148.041188,-444.123565,-78141.740796
702.787477,-3701.029710,-2960.823768,-77375.645298
702.789962,-7846.182985,-296.082377,-77682.083497
702.792446,-7254.018232,-3108.864956,-79367.493593
702.794931,-888.247130,-740.205942,-77835.302597
702.797415,-148.041188,-2072.576638,-77835.302597
702.799900,296.082377,-592.164754,-78754.617194
702.802384,-5329.482782,-2368.659014,-79827.150892
702.804869,-1628.453072,-444.123565,-79673.931792
702.807353,4737.318029,-1332.370696,-78907.836294
702.809838,11843.295072,-2072.576638,-79673.931792
702.812322,5477.523971,-2664.741391,-79980.369991
702.814807,1332.370696,-148.041188,-78141.740796
702.817291,-7994.224174,-2220.617826,-79061.055394
702.819776,-2664.741391,-1184.329507,-79520.712692
702.822260,3404.947333,-1184.329507,-79214.274493
702.824745,12583.501014,-1184.329507,-79520.712692
702.827229,8882.471304,-1036.288319,-78448.178995
702.829714,1628.453072,-2220.617826,-79061.055394
702.832198,-4737.318029,-148.041188,-79061.055394
702.834683,-3701.029710,-1184.329507,-78601.398095
702.837167,2960.823768,-1924.535449,-78601.398095
702.839652,8882.471304,-148.041188,-77528.864398
702.842165,6513.812290,-2072.576638,-80286.808190
702.844678,3552.988522,-148.041188,-81052.903688
702.847191,-6661.853478,-2960.823768,-79214.274493
702.849703,-2220.617826,-1776.494261,-81052.903688
702.852216,1924.535449,-148.041188,-81818.999186
702.854729,-3256.906145,-1184.329507,-78754.617194
702.857242,8734.430116,-2960.823768,-76456.330700
702.859755,1776.494261,-444.123565,-78141.740796
702.862268,3256.906145,-2368.659014,-80286.808190
702.864781,7698.141797,-888.247130,-80133.589091
702.867294,7402.059420,-1184.329507,-80286.808190
702.869807,740.205942,-1776.494261,-78907.836294
702.872320,1628.453072,-148.041188,-79367.493593
702.874832,-888.247130,-1776.494261,-79827.150892
702.877345,6069.688724,-1036.288319,-79980.369991
702.879858,5181.441594,-1628.453072,-78294.959896
702.882371,9326.594869,-888.247130,-78448.178995
702.884884,-5477.523971,-2516.700203,-79214.274493
702.887397,-2516.700203,0.000000,-79214.274493
702.889910,-1924.535449,-1480.411884,-79520.712692
702.892423,9622.677246,-592.164754,-80440.027290
702.894936,1628.453072,-1776.494261,-79520.712692
702.897449,-5033.400406,-148.041188,-77988.521696
702.899961,-13471.748144,-2220.617826,-78294.959896
702.902474,-7846.182985,-740.205942,-79673.931792
702.904987,-4441.235652,-1036.288319,-80746.465489
702.907500,4589.276840,-444.123565,-79520.712692
702.910013,444.123565,-888.247130,-78448.178995
702.912526,-4441.235652,-2072.576638,-78448.178995
702.915039,-11251.130318,-740.205942,-78907.836294
702.917552,-10362.883188,-1628.453072,-79673.931792
702.920065,592.164754,148.041188,-79673.931792
702.922578,1628.453072,-888.247130,-78601.398095
702.925091,-1924.535449,-2072.576638,-78754.617194
702.927603,-6661.853478,-2812.782580,-78601.398095
702.930116,-9326.594869,-1184.329507,-80440.027290
702.932629,-4145.153275,-1924.535449,-79980.369991
702.935142,1480.411884,-888.247130,-78141.740796
702.937655,148.041188,-1924.535449,-77835.302597
702.940168,148.041188,148.041188,-79214.274493
702.942702,-2072.576638,148.041188,-79673.931792
702.945236,-4441.235652,-2368.659014,-80286.808190
702.947771,-5921.647536,-1480.411884,-80746.465489
702.950305,-6069.688724,-1332.370696,-81512.560987
702.952839,-8290.306550,-1332.370696,-80440.027290
702.955373,-9474.636058,-740.205942,-77682.083497
702.957908,-8290.306550,-1924.535449,-77682.083497
702.960442,-3701.029710,-888.247130,-78141.740796
702.962976,296.082377,-740.205942,-80133.589091
702.965510,592.164754,-888.247130,-80746.465489
702.968045,-6217.729913,-1332.370696,-77069.207099
702.970579,-4885.359217,-1184.329507,-78601.398095
702.973113,-3701.029710,-888.247130,-81359.341888
702.975647,-3997.112087,-740.205942,-79827.150892
702.978182,-4145.153275,-1480.411884,-78294.959896
702.980716,-3997.112087,-2664.741391,-77375.645298
702.983250,3256.906145,-148.041188,-78601.398095
702.985784,11103.089130,-2368.659014,-79214.274493
702.988319,10510.924376,-1184.329507,-78601.398095
702.990853,-296.082377,-2220.617826,-78907.836294
702.993387,-3256.906145,-1776.494261,-78601.398095
702.995921,-8438.347739,-2960.823768,-78601.398095
702.998456,2960.823768,-888.247130,-78294.959896
703.000990,8142.265362,-1480.411884,-80133.589091
703.003524,12287.418637,-148.041188,-79520.712692
703.006058,4737.318029,-1332.370696,-79673.931792
703.008593,-1480.411884,-888.247130,-79520.712692
703.011127,-1332.370696,148.041188,-79520.712692
703.013661,5329.482782,-444.123565,-80133.589091
703.016195,740.205942,-2072.576638,-81052.903688
703.018730,5477.523971,-592.164754,-79214.274493
703.021264,8734.430116,-1332.370696,-77222.426198
703.023798,-2368.659014,-1184.329507,-77528.864398
703.026332,-1332.370696,-2220.617826,-79520.712692
703.028867,1036.288319,-592.164754,-78141.740796
703.031401,-2516.700203,-1480.411884,-78907.836294
703.033935,5921.647536,-2812.782580,-79520.712692
703.036469,7846.182985,-148.041188,-79061.055394
703.039004,4441.235652,148.041188,-80440.027290
703.041538,5921.647536,-888.247130,-80746.465489
703.044004,6513.812290,-592.164754,-79214.274493
703.046472,3701.029710,-2812.782580,-77528.864398
703.048939,1332.370696,-1480.411884,-79827.150892
703.051406,740.205942,-888.247130,-79061.055394
703.053874,4589.276840,-2812.782580,-78601.398095
703.056341,7105.977043,-740.205942,-78141.740796
703.058808,2220.617826,-2072.576638,-78601.398095
703.061276,-3108.864956,-1924.535449,-79214.274493
703.063743,148.041188,-740.205942,-79214.274493
703.066210,1924.535449,-1184.329507,-79520.712692
703.068677,5329.482782,-1628.453072,-80133.589091
703.071145,-4145.153275,-148.041188,-80593.246390
703.073612,-9474.636058,-1776.494261,-78754.617194
703.076079,-10362.883188,-1776.494261,-78294.959896
703.078547,-2960.823768,-1036.288319,-78448.178995
703.081014,740.205942,-1036.288319,-79673.931792
703.083481,5773.606348,-1628.453072,-79673.931792
703.085949,-296.082377,-444.123565,-77988.521696
703.088416,-10362.883188,-2220.617826,-79673.931792
703.090883,-12583.501014,-148.041188,-79520.712692
703.093350,-3108.864956,-1332.370696,-79520.712692
703.095818,1184.329507,-888.247130,-77528.864398
703.098285,888.247130,-1628.453072,-79673.931792
703.100752,-4293.194464,-2368.659014,-77682.083497
703.103220,-6809.894666,0.000000,-78294.959896
703.105687,-6217.729913,444.123565,-79827.150892
703.108154,-2220.617826,-2516.700203,-77222.426198
703.110622,1184.329507,-2072.576638,-79061.055394
703.113089,444.123565,-888.247130,-80899.684589
703.115556,-5181.441594,1480.411884,-79061.055394
703.118023,1628.453072,-3997.112087,-78601.398095
703.120491,-740.205942,1332.370696,-78141.740796
703.122958,-10066.800811,-2368.659014,-80133.589091
703.125425,-3849.070898,444.123565,-79214.274493
703.127893,-8142.265362,-2072.576638,-78907.836294
703.130360,-7105.977043,-1776.494261,-79061.055394
703.132827,-4293.194464,-888.247130,-80286.808190
703.135295,1184.329507,-1924.535449,-79061.055394
703.137762,-1628.453072,-1036.288319,-78754.617194
703.140229,-2960.823768,-2220.617826,-77988.521696
703.142729,-3849.070898,-740.205942,-78294.959896
703.145229,-3108.864956,-1480.411884,-79520.712692
703.147730,-4885.359217,-444.123565,-79367.493593
703.150230,-6069.688724,-1332.370696,-79827.150892
703.152730,1036.288319,-592.164754,-78601.398095
703.155230,8882.471304,-2072.576638,-79980.369991
703.157730,12435.459826,-592.164754,-78907.836294
703.160230,7105.977043,-2368.659014,-78907.836294
703.162730,-740.205942,444.123565,-78448.178995
703.165231,-6513.812290,-2664.741391,-79827.150892
703.167731,-4737.318029,296.082377,-78601.398095
703.170231,6365.771101,-1776.494261,-79367.493593
703.172731,12435.459826,-1184.329507,-79980.369991
703.175231,10807.006753,-2368.659014,-78601.398095
703.177731,3552.988522,-1332.370696,-80133.589091
703.180231,-5921.647536,-1480.411884,-80133.589091
703.182731,-4145.153275,-888.247130,-78294.959896
703.185232,8882.471304,-1628.453072,-78907.836294
703.187732,9918.759623,148.041188,-77069.207099
703.190232,7550.100608,-1776.494261,-78294.959896
703.192732,592.164754,444.123565,-79520.712692
703.195232,-3552.988522,-1332.370696,-80593.246390
703.197732,0.000000,-2072.576638,-79827.150892
703.200232,444.123565,-1776.494261,-79061.055394
703.202732,9178.553681,-592.164754,-77988.521696
703.205233,-3404.947333,-148.041188,-79520.712692
703.207733,7254.018232,-740.205942,-77988.521696
703.210233,2072.576638,-740.205942,-79980.369991
703.212733,5921.647536,148.041188,-78754.617194
703.215233,1480.411884,-2960.823768,-79367.493593
703.217733,4589.276840,-1924.535449,-77682.083497
703.220233,2812.782580,-1332.370696,-79214.274493
703.222757,3552.988522,-2072.576638,-79367.493593
703.225281,3552.988522,-740.205942,-77069.207099
703.227805,-3997.112087,-2812.782580,-78601.398095
703.230329,296.082377,-1776.494261,-78601.398095
703.232853,-888.247130,-1480.411884,-80286.808190
703.235377,9918.759623,-444.123565,-79673.931792
703.237900,740.205942,-1628.453072,-79214.274493
703.240424,-6809.894666,-1184.329507,-78294.959896
703.242948,-13915.871710,-2220.617826,-79673.931792
703.245472,-4885.359217,-740.205942,-79367.493593
703.247996,-1924.535449,-1184.329507,-79673.931792
703.250520,6957.935855,-2072.576638,-78448.178995
703.253044,1184.329507,-1776.494261,-77988.521696
703.255567,-6809.894666,-2220.617826,-79367.493593
703.258091,-12879.583391,-1184.329507,-79367.493593
703.260615,-10807.006753,148.041188,-80746.465489
703.263139,1628.453072,-1628.453072,-78754.617194
703.265663,-444.123565,-592.164754,-79367.493593
703.268187,-3552.988522,-2516.700203,-79673.931792
703.270711,-4737.318029,592.164754,-77069.207099
703.273234,-3552.988522,-1332.370696,-79061.055394
703.275758,-6069.688724,-2072.576638,-80593.246390
703.278282,-1776.494261,-444.123565,-80286.808190
703.280806,3701.029710,-2812.782580,-79673.931792
703.283330,1628.453072,1776.494261,-78141.740796
703.285854,-2516.700203,-2812.782580,-79214.274493
703.288378,296.082377,1628.453072,-79980.369991
703.290902,-9918.759623,-3256.906145,-80746.465489
703.293425,-7254.018232,148.041188,-79061.055394
703.295949,-10510.924376,-2960.823768,-79367.493593
703.298473,-4293.194464,-592.164754,-77069.207099
703.300997,-6217.729913,-2220.617826,-80286.808190
703.303521,-1036.288319,0.000000,-79367.493593
703.306045,-3997.112087,-2072.576638,-78448.178995
703.308569,-1924.535449,-888.247130,-78907.836294
703.311092,-3997.112087,-1628.453072,-79367.493593
703.313616,-4885.359217,-740.205942,-79520.712692
703.316140,-6809.894666,-1332.370696,-78754.617194
703.318664,-3552.988522,-740.205942,-78141.740796
703.321188,444.123565,-1776.494261,-78601.398095
703.323731,12731.542202,-1184.329507,-79827.150892
703.326274,11843.295072,-296.082377,-79061.055394
703.328818,1924.535449,-1628.453072,-77682.083497
703.331361,-3256.906145,-592.164754,-78601.398095
703.333904,-10362.883188,-2072.576638,-79673.931792
703.336448,-444.123565,-1036.288319,-80899.684589
703.338991,8734.430116,-1332.370696,-79214.274493
703.341534,13323.706956,-1480.411884,-77988.521696
703.344078,9030.512492,-1628.453072,-78141.740796
703.346621,-1480.411884,-296.082377,-78907.836294
703.349164,-8882.471304,-444.123565,-79367.493593
703.351708,6809.894666,-1924.535449,-78448.178995
703.354251,4589.276840,-888.247130,-78601.398095
703.356794,7550.100608,-1184.329507,-81052.903688
703.359337,3849.070898,-148.041188,-81512.560987
703.361881,-2960.823768,-296.082377,-78907.836294
703.364424,-3552.988522,-3108.864956,-77528.864398
703.366967,2368.659014,-444.123565,-80133.589091
703.369511,1924.535449,-888.247130,-78754.617194
703.372054,2368.659014,-1776.494261,-77682.083497
703.374597,7550.100608,-2072.576638,-77375.645298
703.377141,3849.070898,-2368.659014,-77835.302597
703.379684,2812.782580,-2368.659014,-80133.589091
703.382227,2960.823768,0.000000,-80440.027290
703.384770,5181.441594,-2072.576638,-80593.246390
703.387314,6661.853478,-2664.741391,-79214.274493
703.389857,4441.235652,-740.205942,-80133.589091
703.392400,1184.329507,-888.247130,-78294.959896
703.394944,-3701.029710,-1480.411884,-79827.150892
703.397487,-740.205942,-1924.535449,-78601.398095
703.400030,6217.729913,-1332.370696,-80440.027290
703.402574,4737.318029,-592.164754,-80133.589091
703.405117,-296.082377,-1480.411884,-78754.617194
703.407660,-15248.242405,-740.205942,-80440.027290
703.410203,-10214.842000,-1332.370696,-77988.521696
703.412747,-3849.070898,-1628.453072,-79214.274493
703.415290,2960.823768,-1036.288319,-78754.617194
703.417833,6217.729913,-1332.370696,-79061.055394
703.420377,-1332.370696,-1184.329507,-78448.178995
703.422920,-12583.501014,-2368.659014,-80133.589091
703.425476,-12879.583391,-888.247130,-79673.931792
703.428033,-5181.441594,-1184.329507,-79520.712692
703.430589,2812.782580,-296.082377,-77682.083497
703.433145,-1628.453072,-2812.782580,-79673.931792
703.435701,-1184.329507,-1036.288319,-77222.426198
703.438258,-4589.276840,-1036.288319,-77528.864398
703.440814,-5921.647536,-2960.823768,-79980.369991
703.443370,-8290.306550,-296.082377,-78601.398095
703.445926,4589.276840,-1036.288319,-78294.959896
703.448483,-1776.494261,296.082377,-81359.341888
703.451039,-4441.235652,-1036.288319,-79827.150892
703.453595,-1776.494261,592.164754,-82125.437386
703.456151,-10658.965565,-2368.659014,-79367.493593
703.458708,-7402.059420,-1332.370696,-76762.768900
703.461264,-9030.512492,-1924.535449,-76762.768900
703.463820,-2516.700203,-296.082377,-77988.521696
703.466376,-2812.782580,-4145.153275,-77835.302597
703.468933,-1924.535449,-444.123565,-76456.330700
703.471489,-2516.700203,-1776.494261,-80286.808190
703.474045,-3701.029710,-1184.329507,-80286.808190
703.476601,-3849.070898,-1776.494261,-81052.903688
703.479158,-1924.535449,-888.247130,-79520.712692
703.481714,-6957.935855,-1628.453072,-77988.521696
703.484270,-2960.823768,-1184.329507,-76915.987999
703.486826,8882.471304,-2368.659014,-78907.836294
703.489383,13471.748144,-888.247130,-79214.274493
703.491939,10510.924376,-1480.411884,-78754.617194
703.494495,592.164754,-1036.288319,-78294.959896
703.497051,-8290.306550,-1776.494261,-79061.055394
703.499608,-8290.306550,-1628.453072,-79827.150892
703.502164,4737.318029,-148.041188,-79980.369991
703.504720,11399.171507,-2072.576638,-78601.398095
703.507277,13027.624579,-1480.411884,-78294.959896
703.509833,2072.576638,-2072.576638,-78448.178995
703.512389,-5477.523971,-444.123565,-78294.959896
703.514945,592.164754,-1776.494261,-79673.931792
703.517502,-148.041188,1184.329507,-78907.836294
703.520058,9326.594869,-2220.617826,-80440.027290
703.522614,1776.494261,-1776.494261,-82125.437386
703.525170,1776.494261,0.000000,-78601.398095
703.527736,-7254.018232,-1184.329507,-82125.437386
703.530303,1184.329507,296.082377,-79980.369991
703.532869,2960.823768,-2960.823768,-79367.493593
703.535435,12139.377449,-1332.370696,-75996.673402
703.538001,7402.059420,-1480.411884,-77835.302597
703.540567,6957.935855,-444.123565,-81052.903688
703.543133,1776.494261,-296.082377,-81052.903688
703.545699,1332.370696,-2220.617826,-80286.808190
703.548265,5329.482782,-2072.576638,-80593.246390
703.550831,2664.741391,-1036.288319,-80133.589091
703.553397,5477.523971,-296.082377,-78754.617194
703.555964,2220.617826,-1776.494261,-78601.398095
703.558530,-444.123565,-1480.411884,-77375.645298
703.561096,-148.041188,-2960.823768,-79673.931792
703.563662,5477.523971,-296.082377,-80593.246390
703.566228,5625.565159,-740.205942,-80440.027290
703.568794,-6365.771101,-888.247130,-78754.617194
703.571360,-12731.542202,-148.041188,-78754.617194
703.573926,-9770.718434,-2220.617826,-79980.369991
703.576492,-2812.782580,-1184.329507,-79980.369991
703.579058,4589.276840,-740.205942,-78601.398095
703.581625,6809.894666,-2812.782580,-77988.521696
703.584191,-4441.235652,444.123565,-77988.521696
703.586757,-11991.336260,-2368.659014,-79980.369991
703.589323,-11843.295072,-1036.288319,-79673.931792
703.591889,-1776.494261,-740.205942,-78448.178995
703.594455,6809.894666,-2960.823768,-79520.712692
703.597021,-3552.988522,0.000000,-80286.808190
703.599587,-2220.617826,-1924.535449,-79520.712692
703.602153,-1628.453072,-592.164754,-78448.178995
703.604719,-10362.883188,-1184.329507,-78907.836294
703.607286,-2072.576638,-2812.782580,-78294.959896
703.609852,4293.194464,-1036.288319,-78448.178995
703.612418,-2516.700203,-1184.329507,-77988.521696
703.614984,-5921.647536,-1480.411884,-78294.959896
703.617550,-10066.800811,-296.082377,-80440.027290
703.620116,-9474.636058,-888.247130,-77682.083497
703.622682,-9326.594869,-2220.617826,-78448.178995
703.625248,-4441.235652,0.000000,-77069.207099
703.627814,-2664.741391,-2072.576638,-79827.150892
703.630386,-2960.823768,-740.205942,-78907.836294
703.632957,-3108.864956,-148.041188,-79061.055394
703.635529,-4737.318029,-1036.288319,-80286.808190
703.638100,-5625.565159,-1184.329507,-79214.274493
703.640672,-3849.070898,-1628.453072,-79827.150892
703.643243,-5921.647536,-2368.659014,-77988.521696
703.645815,-2368.659014,-740.205942,-77835.302597
703.648386,6513.812290,-2368.659014,-79214.274493
703.650958,12879.583391,-1332.370696,-78754.617194
703.653529,9918.759623,-592.164754,-79367.493593
703.656101,592.164754,-2072.576638,-79061.055394
703.658672,-6513.812290,-888.247130,-79061.055394
703.661244,-6513.812290,-2516.700203,-80133.589091
703.663815,2812.782580,-296.082377,-79673.931792
703.666386,10066.800811,-1776.494261,-79673.931792
703.668958,14656.077652,-1332.370696,-78448.178995
703.671529,2368.659014,-3108.864956,-78907.836294
703.674101,-6217.729913,0.000000,-78754.617194
703.676672,0.000000,-2960.823768,-78448.178995
703.679244,4145.153275,296.082377,-77528.864398
703.681815,3256.906145,-1776.494261,-81512.560987
703.684387,7550.100608,0.000000,-81052.903688
703.686958,0.000000,-888.247130,-80286.808190
703.689530,-4145.153275,-1628.453072,-80899.684589
703.692101,3256.906145,148.041188,-81052.903688
703.694673,-3108.864956,-2220.617826,-81665.780087
703.697244,7402.059420,-592.164754,-77375.645298
703.699816,9326.594869,-2960.823768,-75843.454302
703.702387,8290.306550,-296.082377,-76609.549800
703.704959,148.041188,-2368.659014,-80440.027290
703.707530,1036.288319,296.082377,-81818.999186
703.710102,3552.988522,-2516.700203,-77528.864398
703.712673,6809.894666,-1924.535449,-79673.931792
703.715244,2368.659014,-296.082377,-79827.150892
703.717816,-888.247130,-1776.494261,-81512.560987
703.720387,-740.205942,-740.205942,-78294.959896
703.722959,5181.441594,-2960.823768,-77835.302597
703.725530,2960.823768,-444.123565,-78141.740796
703.728102,-1332.370696,-1480.411884,-79520.712692
703.730673,-13619.789333,-2072.576638,-77682.083497
703.733249,-10658.965565,-1776.494261,-78141.740796
703.735825,-3997.112087,-2072.576638,-79980.369991
703.738400,3108.864956,-888.247130,-80593.246390
703.740976,4589.276840,-740.205942,-80286.808190
703.743551,-296.082377,-1332.370696,-78141.740796
703.746127,-10658.965565,-2220.617826,-78907.836294
703.748703,-11991.336260,-888.247130,-78754.617194
703.751278,-3997.112087,148.041188,-80593.246390
703.753854,148.041188,-1480.411884,-78754.617194
703.756430,-1036.288319,-3552.988522,-78448.178995
703.759005,-2220.617826,592.164754,-77222.426198
703.761581,-10658.965565,-2220.617826,-78448.178995
703.764156,-3997.112087,-444.123565,-79520.712692
703.766732,148.041188,-1184.329507,-80746.465489
703.769308,1332.370696,-2220.617826,-79673.931792
703.771883,-2812.782580,-1184.329507,-79520.712692
703.774459,-7994.224174,-1184.329507,-80593.246390
703.777035,-8586.388927,-888.247130,-77988.521696
703.779610,-9030.512492,-1776.494261,-78754.617194
703.782186,-8734.430116,-1036.288319,-77835.302597
703.784761,-3997.112087,-1332.370696,-78448.178995
703.787337,-1924.535449,-1036.288319,-79980.369991
703.789913,-3108.864956,-1184.329507,-79214.274493
703.792488,-3997.112087,296.082377,-80133.589091
703.795064,-3552.988522,-1332.370696,-80746.465489
703.797639,-5181.441594,-296.082377,-78907.836294
703.800215,-6365.771101,-1628.453072,-78907.836294
703.802791,-7846.182985,148.041188,-78448.178995
703.805366,5181.441594,-1924.535449,-78754.617194
703.807942,11547.212695,-2072.576638,-79673.931792
703.810518,13767.830521,-1036.288319,-78448.178995
703.813093,2516.700203,-2812.782580,-79061.055394
703.815669,-4885.359217,-1480.411884,-77988.521696
703.818244,-7402.059420,-1628.453072,-78294.959896
703.820820,296.082377,-1776.494261,-79520.712692
703.823396,9918.759623,-592.164754,-79214.274493
703.825971,15396.283594,-888.247130,-78754.617194
703.828547,6661.853478,-2664.741391,-78294.959896
703.831123,1184.329507,-1184.329507,-78754.617194
703.833698,-11251.130318,-1332.370696,-79061.055394
703.836277,1184.329507,-1480.411884,-79520.712692
703.838857,3404.947333,-2516.700203,-79520.712692
703.841436,12879.583391,-888.247130,-78601.398095
703.844015,-148.041188,-1480.411884,-80286.808190
703.846594,-296.082377,-2220.617826,-77682.083497
703.849174,0.000000,-1776.494261,-77682.083497
703.851753,4293.194464,-1332.370696,-78601.398095
703.854332,9770.718434,-1628.453072,-76762.768900
703.856911,12731.542202,-2072.576638,-78141.740796
703.859491,8438.347739,-1924.535449,-77682.083497
703.862070,1628.453072,-1480.411884,-80133.589091
703.864649,-740.205942,-888.247130,-80440.027290
703.867228,296.082377,148.041188,-80593.246390
703.869808,8734.430116,-1924.535449,-78294.959896
703.872387,1036.288319,-1628.453072,-77835.302597
703.874966,1480.411884,-1332.370696,-79980.369991
703.877545,1480.411884,-1628.453072,-78448.178995
703.880125,8882.471304,-1184.329507,-78294.959896
703.882704,-2368.659014,-2072.576638,-78294.959896
703.885283,-10658.965565,-1036.288319,-79061.055394
703.887862,-11547.212695,-1184.329507,-78294.959896
703.890442,-7105.977043,-888.247130,-79980.369991
703.893021,-1184.329507,-888.247130,-79827.150892
703.895600,6365.771101,-592.164754,-79980.369991
703.898179,-1776.494261,-1776.494261,-79367.493593
703.900759,-7846.182985,-1036.288319,-77835.302597
703.903338,-12139.377449,-2220.617826,-78754.617194
703.905917,-9178.553681,-888.247130,-79061.055394
703.908496,0.000000,-296.082377,-80133.589091
703.911076,-4737.318029,-1332.370696,-79520.712692
703.913655,0.000000,-2072.576638,-77375.645298
703.916234,-7994.224174,-1480.411884,-81512.560987
703.918813,-6365.771101,0.000000,-78907.836294
703.921392,-4441.235652,-2072.576638,-77528.864398
703.923972,5625.565159,-1776.494261,-78448.178995
703.926551,-5033.400406,-1776.494261,-79520.712692
703.929130,-1924.535449,-1184.329507,-79827.150892
703.931709,-8142.265362,-1776.494261,-78907.836294
703.934289,-8438.347739,-888.247130,-77682.083497
703.936868,-11251.130318,-1776.494261,-80440.027290
703.939445,-3256.906145,-888.247130,-79061.055394
703.942026,-1036.288319,-1184.329507,-77682.083497
703.944607,-592.164754,-1332.370696,-78754.617194
703.947188,-3849.070898,-1036.288319,-79214.274493
703.949769,-2812.782580,-444.123565,-81052.903688
703.952350,-7254.018232,-1480.411884,-79214.274493
703.954930,-7254.018232,-1480.411884,-79214.274493
703.957511,-6513.812290,-1332.370696,-79673.931792
703.960092,10066.800811,-888.247130,-78294.959896
703.962673,16580.613101,-1628.453072,-79520.712692
703.965254,10955.047942,-2368.659014,-78754.617194
703.967835,592.164754,-1184.329507,-79367.493593
703.970416,-6513.812290,-296.082377,-77988.521696
703.972997,-9770.718434,-2220.617826,-79061.055394
703.975578,0.000000,-888.247130,-78907.836294
703.978159,12287.418637,-1332.370696,-79673.931792
703.980740,15840.407159,-1480.411884,-78907.836294
703.983320,5329.482782,-1924.535449,-78448.178995
703.985901,-4145.153275,-1628.453072,-78294.959896
703.988482,1332.370696,-888.247130,-77988.521696
703.991063,1480.411884,-2516.700203,-80286.808190
703.993644,10510.924376,-296.082377,-79673.931792
703.996225,3108.864956,-1628.453072,-80133.589091
703.998806,-1776.494261,-888.247130,-79827.150892
704.001387,-444.123565,-2812.782580,-80286.808190
704.003968,-4145.153275,-296.082377,-80440.027290
704.006549,2072.576638,-2960.823768,-77682.083497
704.009130,13323.706956,-740.205942,-76303.111601
704.011710,10807.006753,-2072.576638,-78141.740796
704.014291,9326.594869,-2220.617826,-80133.589091
704.016872,1184.329507,-148.041188,-80899.684589
704.019453,888.247130,-740.205942,-79214.274493
704.022034,592.164754,-2220.617826,-80133.589091
704.024615,4441.235652,-740.205942,-80440.027290
704.027196,888.247130,-1628.453072,-79520.712692
704.029777,3552.988522,-444.123565,-77988.521696
704.032358,6661.853478,-2664.741391,-78141.740796
704.034939,5921.647536,-296.082377,-79214.274493
704.037520,-9918.759623,-1924.535449,-80133.589091
704.040100,-11547.212695,-1332.370696,-77375.645298
704.042628,-9030.512492,-3108.864956,-78601.398095
704.045155,-1332.370696,-592.164754,-79520.712692
704.047682,5033.400406,-1036.288319,-80899.684589
704.050210,3701.029710,-592.164754,-79061.055394
704.052737,-4441.235652,-2368.659014,-77375.645298
704.055264,-15396.283594,-2220.617826,-77988.521696
704.057792,-10066.800811,-1184.329507,-79673.931792
704.060319,-3552.988522,-1776.494261,-79673.931792
704.062846,148.041188,-296.082377,-77682.083497
704.065374,-296.082377,-3849.070898,-77835.302597
704.067901,-1184.329507,1480.411884,-77682.083497
704.070428,-11695.253884,-2812.782580,-81206.122788
704.072956,-3849.070898,592.164754,-78294.959896
704.075483,-1036.288319,-2516.700203,-79367.493593
704.078010,-2072.576638,-1184.329507,-80899.684589
704.080538,1628.453072,-1036.288319,-78907.836294
704.083065,-7994.224174,-296.082377,-80133.589091
704.085592,-11843.295072,-2960.823768,-78907.836294
704.088120,-12435.459826,0.000000,-79214.274493
704.090647,-7105.977043,-1036.288319,-78601.398095
704.093174,-1480.411884,-1480.411884,-77988.521696
704.095702,1480.411884,-1332.370696,-78448.178995
704.098229,-3108.864956,-1776.494261,-77988.521696
704.100756,-3997.112087,-1036.288319,-78448.178995
704.103283,-7402.059420,-2072.576638,-79980.369991
704.105811,-9770.718434,-148.041188,-79673.931792
704.108338,-1184.329507,-1036.288319,-79367.493593
704.110865,13175.665768,-2220.617826,-79827.150892
704.113393,14952.160028,-888.247130,-78601.398095
704.115920,12287.418637,-888.247130,-78754.617194
704.118447,-4293.194464,-1480.411884,-79673.931792
704.120975,-7846.182985,-1184.329507,-77835.302597
704.123502,-5921.647536,-3404.947333,-78907.836294
704.126029,5921.647536,1036.288319,-78907.836294
704.128557,14063.912898,-2220.617826,-79980.369991
704.131084,14063.912898,-592.164754,-79520.712692
704.133611,3256.906145,-1628.453072,-79673.931792
704.136139,2664.741391,-1332.370696,-78754.617194
704.138666,-5625.565159,-592.164754,-77682.083497
704.141193,7846.182985,-1332.370696,-78294.959896
704.143733,7254.018232,-2516.700203,-78601.398095
704.146274,3108.864956,-444.123565,-79827.150892
704.148814,-4885.359217,-888.247130,-80593.246390
704.151354,5921.647536,-592.164754,-78294.959896
704.153894,1184.329507,-2812.782580,-78601.398095
704.156434,9178.553681,-1332.370696,-78907.836294
704.158974,10807.006753,-1924.535449,-79061.055394
704.161515,12139.377449,-1036.288319,-78601.398095
704.164055,1480.411884,-1776.494261,-81052.903688
704.166595,740.205942,0.000000,-79367.493593
704.169135,-1480.411884,-1776.494261,-78294.959896
704.171675,3701.029710,-1628.453072,-77682.083497
704.174215,2516.700203,-2664.741391,-78754.617194
704.176756,3701.029710,-1480.411884,-78448.178995
704.179296,11547.212695,-296.082377,-77988.521696
704.181836,1036.288319,-2220.617826,-79214.274493
704.184376,-11399.171507,-444.123565,-79214.274493
704.186916,-17320.819043,-1332.370696,-78294.959896
704.189456,-8142.265362,-1480.411884,-78448.178995
704.191997,-740.205942,-1036.288319,-79214.274493
704.194537,7402.059420,-1332.370696,-79673.931792
704.197077,2960.823768,-444.123565,-78601.398095
704.199617,-5181.441594,-1184.329507,-79061.055394
704.202157,-18357.107362,-2220.617826,-78448.178995
704.204697,-7994.224174,-148.041188,-79673.931792
704.207238,148.041188,-1924.535449,-80440.027290
704.209778,1924.535449,148.041188,-79827.150892
704.212318,-592.164754,-2812.782580,-80440.027290
704.214858,2960.823768,-888.247130,-78601.398095
704.217398,-14508.036463,-1184.329507,-79061.055394
704.219938,2664.741391,1628.453072,-77528.864398
704.222479,-9474.636058,-3701.029710,-78907.836294
704.225019,2812.782580,-296.082377,-75230.577904
704.227559,-4293.194464,-1628.453072,-78907.836294
704.230099,-11251.130318,-1480.411884,-76303.111601
704.232639,-11695.253884,-2960.823768,-77375.645298
704.235179,-10510.924376,-1628.453072,-79520.712692
704.237720,-5477.523971,-1184.329507,-80133.589091
704.240260,888.247130,0.000000,-78448.178995
704.242800,-1332.370696,-1776.494261,-79673.931792
704.245350,-5033.400406,0.000000,-80899.684589
704.247901,-5181.441594,-1628.453072,-80440.027290
704.250451,-10658.965565,-1332.370696,-79061.055394
704.253001,-5477.523971,-1480.411884,-78294.959896
704.255552,12139.377449,-1480.411884,-78448.178995
704.258102,17616.901420,-1184.329507,-79673.931792
704.260652,12435.459826,-1480.411884,-77222.426198
704.263203,-2664.741391,-1776.494261,-78754.617194
704.265753,-8290.306550,-148.041188,-78141.740796
704.268304,-6513.812290,-2072.576638,-80899.684589
704.270854,3552.988522,-888.247130,-79827.150892
704.273404,13767.830521,-2368.659014,-79673.931792
704.275955,15396.283594,-1332.370696,-77835.302597
704.278505,3552.988522,-2220.617826,-77835.302597
704.281055,-12287.418637,-1184.329507,-80899.684589
704.283606,-5477.523971,-592.164754,-77682.083497
704.286156,5773.606348,-1036.288319,-76915.987999
704.288707,7402.059420,-2220.617826,-79061.055394
704.291257,8586.388927,-888.247130,-80746.465489
704.293807,-2220.617826,-1480.411884,-81665.780087
704.296358,-1036.288319,444.123565,-80133.589091
704.298908,-3552.988522,-4441.235652,-79214.274493
704.301458,8734.430116,-592.164754,-81512.560987
704.304009,12731.542202,-148.041188,-82431.875585
704.306559,9030.512492,444.123565,-77222.426198
704.309110,5033.400406,-2664.741391,-76915.987999
704.311660,-1184.329507,-2516.700203,-77835.302597
704.314210,-592.164754,-296.082377,-79980.369991
704.316761,-1332.370696,-1332.370696,-81818.999186
704.319311,2960.823768,-1184.329507,-80133.589091
704.321861,7846.182985,-296.082377,-79520.712692
704.324412,9326.594869,-740.205942,-81818.999186
704.326962,-4885.359217,0.000000,-79827.150892
704.329513,-13915.871710,-1628.453072,-77988.521696
704.332063,-17172.777854,-2664.741391,-77835.302597
704.334613,-4885.359217,-1036.288319,-78448.178995
704.337164,3849.070898,-1628.453072,-79520.712692
704.339714,8882.471304,-592.164754,-80286.808190
704.342264,-4293.194464,-1776.494261,-78294.959896
704.344815,-11695.253884,-1332.370696,-79214.274493
704.347324,-17172.777854,-1480.411884,-80593.246390
704.349832,-7254.018232,-740.205942,-79673.931792
704.352341,8882.471304,-2072.576638,-77835.302597
704.354850,5773.606348,-592.164754,-77682.083497
704.357358,-5477.523971,-2812.782580,-79673.931792
704.359867,-3108.864956,740.205942,-80440.027290
704.362376,-2516.700203,-888.247130,-78907.836294
704.364885,296.082377,-1776.494261,-79827.150892
704.367393,592.164754,-888.247130,-79061.055394
704.369902,-2960.823768,-1480.411884,-81206.122788
704.372411,-10658.965565,-1480.411884,-79214.274493
704.374920,-11991.336260,-740.205942,-77682.083497
704.377428,-12731.542202,-2960.823768,-77988.521696
704.379937,-5181.441594,-1480.411884,-78294.959896
704.382446,444.123565,-1924.535449,-77988.521696
704.384954,444.123565,-2072.576638,-78141.740796
704.387463,-3108.864956,-1184.329507,-79827.150892
704.389972,-4885.359217,-444.123565,-79214.274493
704.392481,-10066.800811,-1480.411884,-79827.150892
704.394989,-9030.512492,-1184.329507,-79673.931792
704.397498,6661.853478,-1480.411884,-78294.959896
704.400007,18505.148550,-1036.288319,-78448.178995
704.402515,14508.036463,-2220.617826,-79367.493593
704.405024,888.247130,-1480.411884,-77682.083497
704.407533,-8290.306550,-888.247130,-78294.959896
704.410042,-10066.800811,-1776.494261,-79673.931792
704.412550,1776.494261,-1332.370696,-80286.808190
704.415059,13323.706956,-1332.370696,-79673.931792
704.417568,15988.448347,-740.205942,-77988.521696
704.420077,5329.482782,-2072.576638,-78754.617194
704.422585,-11103.089130,-444.123565,-79827.150892
704.425094,-8586.388927,-444.123565,-79980.369991
704.427603,2368.659014,-740.205942,-78294.959896
704.430111,7550.100608,-1924.535449,-78141.740796
704.432620,6217.729913,-888.247130,-80133.589091
704.435129,-8290.306550,-1924.535449,-81052.903688
704.437638,8734.430116,148.041188,-78754.617194
704.440146,1628.453072,-2368.659014,-80440.027290
704.442655,7846.182985,-1480.411884,-77835.302597
704.445164,13767.830521,-592.164754,-78294.959896
704.447690,9178.553681,-1628.453072,-79520.712692
704.450216,3256.906145,-888.247130,-78601.398095
704.452742,-1628.453072,-1480.411884,-80593.246390
704.455268,-3404.947333,-1628.453072,-79520.712692
704.457794,148.041188,-1036.288319,-79061.055394
704.460321,3701.029710,-1776.494261,-79673.931792
704.462847,13323.706956,-592.164754,-80286.808190
704.465373,7105.977043,-1924.535449,-80286.808190
704.467899,-9178.553681,0.000000,-78294.959896
704.470425,-20725.766376,-1628.453072,-78754.617194
704.472951,-15100.201217,-2368.659014,-78448.178995
704.475478,-740.205942,-1036.288319,-79673.931792
704.478004,7994.224174,-1184.329507,-80286.808190
704.480530,7846.182985,-1776.494261,-79214.274493
704.483056,-4589.276840,-1332.370696,-78294.959896
704.485582,-17024.736666,-1184.329507,-78294.959896
704.488108,-14804.118840,-888.247130,-79980.369991
704.490634,-8290.306550,-1036.288319,-79673.931792
704.493161,6513.812290,-2220.617826,-77222.426198
704.495687,2368.659014,-740.205942,-75996.673402
704.498213,-3256.906145,-2220.617826,-79520.712692
704.500739,-5921.647536,-1924.535449,-79214.274493
704.503265,-296.082377,-2072.576638,-77375.645298
704.505791,1332.370696,-2368.659014,-78601.398095
704.508317,-1628.453072,-2516.700203,-79214.274493
704.510844,1332.370696,740.205942,-79367.493593
704.513370,-13027.624579,-1480.411884,-81818.999186
704.515896,-12583.501014,-888.247130,-78907.836294
704.518422,-10362.883188,-2220.617826,-79061.055394
704.520948,-592.164754,-740.205942,-80133.589091
704.523474,2368.659014,-1332.370696,-79980.369991
704.526000,148.041188,-1332.370696,-80593.246390
704.528540,-3552.988522,-888.247130,-78907.836294
704.531080,-11103.089130,-2664.741391,-79214.274493
704.533620,-11103.089130,-1036.288319,-78754.617194
704.536160,5921.647536,-1628.453072,-79367.493593
704.538699,18357.107362,-1036.288319,-79673.931792
704.541239,16580.613101,-444.123565,-78754.617194
704.543779,0.000000,-2664.741391,-79061.055394
704.546319,-7254.018232,-740.205942,-79367.493593
704.548859,-14211.954086,-1628.453072,-79061.055394
704.551398,1776.494261,-1036.288319,-78907.836294
704.553938,12287.418637,-2960.823768,-78907.836294
704.556478,18653.189738,-592.164754,-77682.083497
704.559018,7846.182985,-2072.576638,-80440.027290
704.561558,-2664.741391,-1628.453072,-78754.617194
704.564097,-9178.553681,-296.082377,-79827.150892
704.566637,296.082377,-1184.329507,-81512.560987
704.569177,3701.029710,-1036.288319,-78601.398095
704.571717,7550.100608,-888.247130,-77222.426198
704.574257,3997.112087,-1776.494261,-77988.521696
704.576796,-7105.977043,-740.205942,-79673.931792
704.579336,1184.329507,-2368.659014,-81818.999186
704.581876,7698.141797,-1480.411884,-79673.931792
704.584416,13619.789333,-1184.329507,-80133.589091
704.586956,8290.306550,-1628.453072,-80286.808190
704.589495,5773.606348,-1924.535449,-77988.521696
704.592035,-4589.276840,-1036.288319,-79827.150892
704.594575,-5181.441594,-1776.494261,-78294.959896
704.597115,444.123565,-1184.329507,-79214.274493
704.599655,8142.265362,-1480.411884,-78907.836294
704.602194,12731.542202,-1036.288319,-79214.274493
704.604734,-1924.535449,-888.247130,-79367.493593
704.607274,-14804.118840,-740.205942,-79673.931792
704.609814,-20281.642811,-2664.741391,-78294.959896
704.612354,-9770.718434,-592.164754,-79520.712692
704.614893,2960.823768,-1036.288319,-79980.369991
704.617433,12435.459826,-148.041188,-78907.836294
704.619973,2812.782580,-3108.864956,-79061.055394
704.622513,-11103.089130,-592.164754,-77375.645298
704.625053,-18653.189738,-2516.700203,-79827.150892
704.627592,-3256.906145,-1184.329507,-79980.369991
704.630097,2516.700203,148.041188,-79673.931792
704.632602,5033.400406,-1924.535449,-80286.808190
704.635107,1184.329507,-888.247130,-78907.836294
704.637612,-5181.441594,-1924.535449,-78907.836294
704.640117,-4589.276840,-148.041188,-80899.684589
704.642622,-2664.741391,0.000000,-77835.302597
704.645127,-4441.235652,-3256.906145,-78448.178995
704.647631,-2812.782580,-296.082377,-77069.207099
704.650136,-12435.459826,-1924.535449,-80286.808190
704.652641,-12731.542202,-1332.370696,-79367.493593
704.655146,-9030.512492,-2220.617826,-79980.369991
704.657651,-1628.453072,0.000000,-78294.959896
704.660156,2368.659014,-2072.576638,-79061.055394
704.662661,-1480.411884,-1924.535449,-80440.027290
704.665166,-6069.688724,296.082377,-79980.369991
704.667671,-13175.665768,-1332.370696,-79367.493593
704.670175,-5773.606348,-2072.576638,-77988.521696
704.672680,11103.089130,-1036.288319,-78448.178995
704.675185,18653.189738,-2516.700203,-79214.274493
704.677690,15248.242405,-592.164754,-78907.836294
704.680195,888.247130,-1776.494261,-77835.302597
704.682700,-9918.759623,-592.164754,-78141.740796
704.685205,-9474.636058,-1924.535449,-80286.808190
704.687710,4589.276840,444.123565,-79827.150892
704.690215,15840.407159,-2220.617826,-79980.369991
704.692719,18949.272115,-888.247130,-77682.083497
704.695224,4589.276840,-1332.370696,-79980.369991
704.697729,-5921.647536,-3256.906145,-80593.246390
704.700234,-7846.182985,-1036.288319,-80286.808190
704.702739,2516.700203,-296.082377,-79827.150892
704.705244,10362.883188,-2368.659014,-79214.274493
704.707749,1628.453072,-2664.741391,-77528.864398
704.710254,7254.018232,-296.082377,-77222.426198
704.712759,-5329.482782,-2220.617826,-80746.465489
704.715263,6957.935855,-1036.288319,-80593.246390
704.717768,9178.553681,-2516.700203,-80133.589091
704.720273,13323.706956,-148.041188,-79367.493593
704.722778,6217.729913,-1332.370696,-79827.150892
704.725283,1332.370696,-2368.659014,-78907.836294
704.727788,-7402.059420,-740.205942,-78907.836294
704.730312,-2960.823768,-2072.576638,-78448.178995
704.732835,2960.823768,-740.205942,-77835.302597
704.735359,15692.365970,-2220.617826,-79673.931792
704.737883,6513.812290,-888.247130,-79980.369991
704.740407,-13471.748144,-296.082377,-79061.055394
704.742930,-21169.889941,-1924.535449,-78907.836294
704.745454,-12287.418637,-1924.535449,-79367.493593
704.747978,-740.205942,-888.247130,-79827.150892
704.750502,10510.924376,-444.123565,-79214.274493
704.753025,5033.400406,-1184.329507,-77988.521696
704.755549,-4589.276840,-1332.370696,-77988.521696
704.758073,-17468.860231,-1184.329507,-79520.712692
704.760597,-10955.047942,296.082377,-78294.959896
704.763120,3108.864956,-1776.494261,-77835.302597
704.765644,3256.906145,-1480.411884,-79214.274493
704.768168,2220.617826,-888.247130,-80746.465489
704.770692,-4293.194464,-1776.494261,-79827.150892
704.773215,-8290.306550,888.247130,-80133.589091
704.775739,148.041188,-1036.288319,-77375.645298
704.778263,-5921.647536,-2516.700203,-78141.740796
704.780787,444.123565,296.082377,-77988.521696
704.783310,-10955.047942,-1924.535449,-79980.369991
704.785834,-14211.954086,444.123565,-79980.369991
704.788358,-13027.624579,-3552.988522,-79673.931792
704.790882,-3701.029710,-1628.453072,-78294.959896
704.793405,1480.411884,-2072.576638,-78601.398095
704.795929,1036.288319,-1184.329507,-78754.617194
704.798453,-2664.741391,-1776.494261,-79520.712692
704.800977,-13027.624579,-1332.370696,-78907.836294
704.803500,-6661.853478,-888.247130,-78754.617194
704.806024,9326.594869,-1776.494261,-79367.493593
704.808548,18209.066173,-1332.370696,-79367.493593
704.811072,16432.571912,-1184.329507,-78448.178995
704.813595,3701.029710,-2664.741391,-78448.178995
704.816119,-7846.182985,-1036.288319,-79520.712692
704.818643,-12287.418637,-592.164754,-78754.617194
704.821167,4589.276840,-2072.576638,-79214.274493
704.823690,14063.912898,-444.123565,-78907.836294
704.826214,13471.748144,-1628.453072,-78141.740796
704.828738,-1184.329507,-1480.411884,-77682.083497
704.831277,-5773.606348,-1480.411884,-77682.083497
704.833817,-888.247130,-888.247130,-77682.083497
704.836356,296.082377,-2220.617826,-80593.246390
704.838895,5477.523971,0.000000,-75996.673402
704.841435,-296.082377,-1036.288319,-78754.617194
704.843974,-3849.070898,-1924.535449,-80286.808190
704.846513,3108.864956,-888.247130,-80440.027290
704.849053,6217.729913,-592.164754,-77988.521696
704.851592,14508.036463,-1184.329507,-78754.617194
704.854132,7846.182985,-1776.494261,-77988.521696
704.856671,8290.306550,-1628.453072,-79367.493593
704.859210,-4737.318029,-1036.288319,-80593.246390
704.861750,-9030.512492,-1332.370696,-80133.589091
704.864289,296.082377,-1184.329507,-79980.369991
704.866829,9030.512492,-1628.453072,-77835.302597
704.869368,14211.954086,-740.205942,-78141.740796
704.871907,-2812.782580,-1036.288319,-79061.055394
704.874447,-14952.160028,296.082377,-78448.178995
704.876986,-19393.395680,-2072.576638,-80286.808190
704.879525,-5329.482782,-2072.576638,-78294.959896
704.882065,4589.276840,-1184.329507,-80286.808190
704.884604,9918.759623,-1036.288319,-80746.465489
704.887144,-296.082377,-1332.370696,-79061.055394
704.889683,-10807.006753,-2072.576638,-77528.864398
704.892222,-21614.013506,-888.247130,-79367.493593
704.894762,-8586.388927,-1776.494261,-79061.055394
704.897301,3256.906145,296.082377,-78294.959896
704.899840,8142.265362,-1036.288319,-77375.645298
704.902380,-10510.924376,-888.247130,-76609.549800
704.904919,888.247130,-1184.329507,-79214.274493
704.907459,-13619.789333,-444.123565,-81206.122788
704.909998,-2072.576638,-1924.535449,-78601.398095
704.912537,-148.041188,-1776.494261,-79673.931792
704.915077,-8142.265362,-1036.288319,-75690.235202
704.917616,-9474.636058,-1776.494261,-79367.493593
704.920155,-16136.489536,-1184.329507,-79367.493593
704.922695,-4737.318029,-1480.411884,-78601.398095
704.925234,-740.205942,-1184.329507,-78907.836294
704.927774,2812.782580,-2220.617826,-78294.959896
704.930313,-888.247130,-888.247130,-79214.274493
704.932863,-12435.459826,-1628.453072,-79673.931792
704.935413,-8586.388927,-740.205942,-79061.055394
704.937964,5625.565159,-2220.617826,-78448.178995
704.940515,17616.901420,-1480.411884,-78754.617194
704.943066,13767.830521,-2516.700203,-78907.836294
704.945616,2072.576638,-1480.411884,-77069.207099
704.948167,-6069.688724,-1184.329507,-78601.398095
704.950718,-9918.759623,-2072.576638,-79367.493593
704.953268,-296.082377,-740.205942,-80746.465489
704.955819,13767.830521,-740.205942,-79520.712692
704.958370,17616.901420,-1480.411884,-77988.521696
704.960920,10955.047942,-2220.617826,-78448.178995
704.963471,-1332.370696,-1480.411884,-79827.150892
704.966022,-888.247130,-888.247130,-81512.560987
704.968573,-2516.700203,-1184.329507,-80286.808190
704.971123,2812.782580,0.000000,-77375.645298
704.973674,1036.288319,-2368.659014,-77682.083497
704.976225,-2960.823768,-3108.864956,-77375.645298
704.978775,3701.029710,-148.041188,-80286.808190
704.981326,6957.935855,-1776.494261,-80899.684589
704.983877,12731.542202,-296.082377,-77375.645298
704.986427,9030.512492,-2220.617826,-78448.178995
704.988978,5625.565159,-1332.370696,-79061.055394
704.991529,-6217.729913,-1480.411884,-80746.465489
704.994080,-5773.606348,-1184.329507,-79214.274493
704.996630,1480.411884,-1628.453072,-79673.931792
704.999181,15396.283594,-1776.494261,-79520.712692
705.001732,6365.771101,-2072.576638,-78294.959896
705.004282,-9918.759623,-148.041188,-78754.617194
705.006833,-17616.901420,-1924.535449,-77988.521696
705.009384,-14656.077652,-1332.370696,-79520.712692
705.011935,-3552.988522,-1184.329507,-80746.465489
705.014485,7402.059420,-592.164754,-79980.369991
705.017036,8734.430116,-888.247130,-79061.055394
705.019587,-4737.318029,-2220.617826,-78601.398095
705.022137,-15100.201217,-1036.288319,-79061.055394
705.024688,-10214.842000,-1776.494261,-79520.712692
705.027239,-1776.494261,444.123565,-80440.027290
705.029789,3256.906145,-2516.700203,-79827.150892
705.032340,148.041188,-148.041188,-77528.864398
705.034900,592.164754,-1184.329507,-77069.207099
705.037461,-5921.647536,-1036.288319,-79214.274493
705.040021,592.164754,888.247130,-77682.083497
705.042581,-7550.100608,-2812.782580,-79980.369991
705.045141,-2960.823768,-1776.494261,-77988.521696
705.047702,-10658.965565,-2960.823768,-77682.083497
705.050262,-12139.377449,-1036.288319,-78141.740796
705.052822,-9474.636058,-2516.700203,-80286.808190
705.055382,2072.576638,-444.123565,-78141.740796
705.057943,592.164754,-2368.659014,-78294.959896
705.060503,-1184.329507,-1036.288319,-78754.617194
705.063063,-12879.583391,-1924.535449,-79061.055394
705.065623,-5033.400406,444.123565,-79214.274493
705.068184,8586.388927,-2368.659014,-79520.712692
705.070744,16136.489536,-1776.494261,-79214.274493
705.073304,14359.995275,-1480.411884,-79827.150892
705.075864,2812.782580,-888.247130,-78141.740796
705.078425,-6069.688724,-1628.453072,-78448.178995
705.080985,-7550.100608,-1332.370696,-78907.836294
705.083545,1924.535449,-740.205942,-79980.369991
705.086106,15396.283594,0.000000,-78754.617194
705.088666,16580.613101,-2368.659014,-79367.493593
705.091226,296.082377,-1628.453072,-79214.274493
705.093786,-2072.576638,-444.123565,-79061.055394
705.096347,-6365.771101,-1480.411884,-78294.959896
705.098907,3108.864956,-1184.329507,-79520.712692
705.101467,4145.153275,-2812.782580,-78294.959896
705.104027,1480.411884,-1036.288319,-77375.645298
705.106588,1628.453072,-1184.329507,-78141.740796
705.109148,6217.729913,-2368.659014,-77988.521696
705.111708,11103.089130,-1776.494261,-80746.465489
705.114268,8142.265362,-444.123565,-79214.274493
705.116829,10362.883188,-740.205942,-79367.493593
705.119389,3552.988522,-2368.659014,-77988.521696
705.121949,-8290.306550,-444.123565,-80746.465489
705.124509,-1480.411884,-1628.453072,-79827.150892
705.127070,8142.265362,-1184.329507,-78294.959896
705.129630,13175.665768,-2072.576638,-77835.302597
705.132190,-2664.741391,-1480.411884,-79827.150892
705.134750,-13323.706956,-740.205942,-78754.617194
705.137318,-18357.107362,-1480.411884,-78754.617194
705.139886,-8438.347739,-1776.494261,-79980.369991
705.142453,2368.659014,-1776.494261,-79980.369991
705.145021,10807.006753,-592.164754,-79214.274493
705.147589,2220.617826,-2220.617826,-78141.740796
705.150156,-10510.924376,-1332.370696,-78294.959896
705.152724,-22650.301825,-1036.288319,-78294.959896
705.155292,-8882.471304,-3108.864956,-78601.398095
705.157860,5477.523971,-888.247130,-77988.521696
705.160427,888.247130,-2220.617826,-77069.207099
705.162995,-2368.659014,148.041188,-76149.892501
705.165563,-5033.400406,-740.205942,-77835.302597
705.168130,-1924.535449,-1036.288319,-78294.959896
705.170698,888.247130,-1776.494261,-80746.465489
705.173266,-9326.594869,148.041188,-82125.437386
705.175833,-8734.430116,-888.247130,-79520.712692
705.178401,-13323.706956,-1332.370696,-76915.987999
705.180969,-5773.606348,-1628.453072,-77069.207099
705.183536,-2220.617826,-444.123565,-80899.684589
705.186104,2072.576638,-1036.288319,-76456.330700
705.188672,1036.288319,-1184.329507,-76303.111601
705.191239,-9474.636058,-2516.700203,-79061.055394
705.193807,-11843.295072,-888.247130,-80286.808190
705.196375,5033.400406,-444.123565,-81512.560987
705.198942,14211.954086,-1628.453072,-80440.027290
705.201510,18949.272115,-888.247130,-78448.178995
705.204078,1776.494261,-740.205942,-79827.150892
705.206646,-5181.441594,-1184.329507,-78294.959896
705.209213,-9326.594869,-1332.370696,-78754.617194
705.211781,-1628.453072,-2072.576638,-78294.959896
705.214349,12583.501014,-1332.370696,-78601.398095
705.216916,15692.365970,-1628.453072,-79980.369991
705.219484,5181.441594,-1628.453072,-79673.931792
705.222052,-740.205942,-2220.617826,-79367.493593
705.224619,-6661.853478,-1924.535449,-80746.465489
705.227187,-2960.823768,-444.123565,-77835.302597
705.229755,7698.141797,-1628.453072,-78141.740796
705.232322,0.000000,-2516.700203,-76609.549800
705.234890,11695.253884,-592.164754,-79980.369991
705.237458,-1776.494261,-2812.782580,-81972.218286
705.240030,12435.459826,1184.329507,-79827.150892
705.242603,5921.647536,-3256.906145,-82125.437386
705.245176,10214.842000,-148.041188,-79061.055394
705.247748,-444.123565,-1036.288319,-80440.027290
705.250321,-4589.276840,-1332.370696,-77682.083497
705.252894,-2516.700203,-2516.700203,-77988.521696
705.255466,7550.100608,-592.164754,-78141.740796
705.258039,11251.130318,-2368.659014,-78907.836294
705.260611,-2812.782580,-444.123565,-79827.150892
705.263184,-14656.077652,-2368.659014,-78754.617194
705.265757,-15840.407159,-740.205942,-78601.398095
705.268329,-5625.565159,-1184.329507,-79980.369991
705.270902,2072.576638,-1480.411884,-80133.589091
705.273475,8142.265362,-1628.453072,-78907.836294
705.276047,2220.617826,-296.082377,-77682.083497
705.278620,-11547.212695,-1628.453072,-79061.055394
705.281192,-17468.860231,-1924.535449,-79214.274493
705.283765,-3849.070898,-2516.700203,-79980.369991
705.286338,-296.082377,-1924.535449,-78141.740796
705.288910,3256.906145,-2220.617826,-77222.426198
705.291483,-7254.018232,-1628.453072,-78448.178995
705.294056,-740.205942,592.164754,-80286.808190
705.296628,-10214.842000,-2812.782580,-81052.903688
705.299201,2220.617826,444.123565,-77835.302597
705.301774,-9030.512492,-2072.576638,-78601.398095
705.304346,-12435.459826,0.000000,-77988.521696
705.306919,-9326.594869,-2664.741391,-78907.836294
705.309491,-6809.894666,-1036.288319,-78448.178995
705.312064,1332.370696,-1184.329507,-79520.712692
705.314637,-1776.494261,-296.082377,-79980.369991
705.317209,-1924.535449,-888.247130,-78294.959896
705.319782,-11399.171507,-1480.411884,-79061.055394
705.322355,-6217.729913,-888.247130,-78601.398095
705.324927,14359.995275,-2072.576638,-79673.931792
705.327500,19245.354492,-1628.453072,-79673.931792
705.330072,10510.924376,-1480.411884,-78601.398095
705.332645,-2516.700203,-1184.329507,-79061.055394
705.335218,-7698.141797,-1036.288319,-78294.959896
705.337790,-7698.141797,-1924.535449,-79827.150892
705.340363,5181.441594,-1332.370696,-78754.617194
705.342940,14508.036463,-1036.288319,-77682.083497
705.345517,4737.318029,-1776.494261,-79827.150892
705.348094,-2516.700203,-1332.370696,-77835.302597
705.350671,148.041188,-1184.329507,-76915.987999
705.353248,148.041188,-1480.411884,-79827.150892
705.355824,148.041188,-1480.411884,-81052.903688
705.358401,6957.935855,-2516.700203,-80133.589091
705.360978,6809.894666,-592.164754,-77988.521696
705.363555,7698.141797,-2220.617826,-78907.836294
705.366132,8882.471304,-148.041188,-80133.589091
705.368709,10214.842000,-1332.370696,-79980.369991
705.371286,9770.718434,-1184.329507,-78448.178995
705.373863,4441.235652,-1332.370696,-78754.617194
705.376440,-5921.647536,-1776.494261,-79673.931792
705.379017,-1036.288319,-2072.576638,-78907.836294
705.381593,6365.771101,-1184.329507,-79214.274493
705.384170,12731.542202,-592.164754,-78294.959896
705.386747,-3849.070898,-1776.494261,-78907.836294
705.389324,-15396.283594,-444.123565,-78448.178995
705.391901,-17320.819043,-444.123565,-78294.959896
705.394478,-5625.565159,-1628.453072,-78601.398095
705.397055,1184.329507,-888.247130,-79827.150892
705.399632,7550.100608,-1776.494261,-79827.150892
705.402209,-2516.700203,-1184.329507,-79214.274493
705.404786,-8586.388927,-1924.535449,-77682.083497
705.407362,-9474.636058,-1924.535449,-79673.931792
705.409939,-4441.235652,148.041188,-80899.684589
705.412516,148.041188,-1332.370696,-80286.808190
705.415093,3849.070898,-1776.494261,-77682.083497
705.417670,444.123565,-2220.617826,-77682.083497
705.420247,-7105.977043,-740.205942,-77682.083497
705.422824,-2960.823768,-2072.576638,-79673.931792
705.425401,-2664.741391,-888.247130,-79520.712692
705.427978,-9326.594869,-1776.494261,-77222.426198
705.430555,-9326.594869,-1924.535449,-77069.207099
705.433131,-6217.729913,-1776.494261,-79214.274493
705.435708,-6661.853478,-444.123565,-80286.808190
705.438285,-444.123565,-1036.288319,-80440.027290
705.440862,296.082377,0.000000,-79214.274493
705.443439,-5477.523971,-1036.288319,-78448.178995
705.446019,-9770.718434,-2072.576638,-77682.083497
705.448599,3701.029710,-740.205942,-79367.493593
705.451179,14359.995275,-2072.576638,-78754.617194
705.453760,16728.654289,-1332.370696,-78141.740796
705.456340,5329.482782,-2072.576638,-78141.740796
705.458920,-740.205942,0.000000,-79214.274493
705.461500,-8882.471304,-2072.576638,-80133.589091
705.464080,-1628.453072,-1332.370696,-79214.274493
705.466660,6513.812290,-1184.329507,-79673.931792
705.469241,20429.683999,-1036.288319,-80593.246390
705.471821,2960.823768,296.082377,-76915.987999
705.474401,592.164754,-1924.535449,-78907.836294
705.476981,-5181.441594,-1184.329507,-80899.684589
705.479561,4441.235652,1776.494261,-80593.246390
705.482141,-3108.864956,-2368.659014,-79367.493593
705.484722,11695.253884,-1036.288319,-76915.987999
705.487302,7105.977043,-2812.782580,-77988.521696
705.489882,6661.853478,296.082377,-78448.178995
705.492462,9178.553681,-1924.535449,-78754.617194
705.495042,6809.894666,-888.247130,-77682.083497
705.497622,3997.112087,-2516.700203,-79673.931792
705.500202,-5033.400406,-148.041188,-80440.027290
705.502783,444.123565,-1332.370696,-79367.493593
705.505363,4145.153275,-1480.411884,-79673.931792
705.507943,11547.212695,-1332.370696,-78448.178995
705.510523,-2220.617826,-1924.535449,-80746.465489
705.513103,-13619.789333,-1332.370696,-77835.302597
705.515683,-17468.860231,-2220.617826,-77069.207099
705.518264,-9178.553681,-888.247130,-77988.521696
705.520844,-296.082377,-1924.535449,-79827.150892
705.523424,8290.306550,-148.041188,-79827.150892
705.526004,592.164754,-740.205942,-78754.617194
705.528584,-6957.935855,-2516.700203,-79214.274493
705.531164,-23390.507767,-1332.370696,-80286.808190
705.533744,-5921.647536,-888.247130,-78601.398095
705.536325,7550.100608,-740.205942,-78141.740796
705.538905,-2368.659014,-2960.823768,-79827.150892
705.541485,4737.318029,-148.041188,-79367.493593
705.544065,-15396.283594,-1184.329507,-81206.122788
705.546645,4737.318029,0.000000,-77069.207099
705.549227,-12879.583391,-1184.329507,-81359.341888
705.551809,-7550.100608,0.000000,-77682.083497
705.554390,-10362.883188,-2960.823768,-77835.302597
705.556972,-5773.606348,-740.205942,-77682.083497
705.559553,-5773.606348,-1776.494261,-79980.369991
705.562135,-1480.411884,-1036.288319,-80286.808190
705.564717,-2220.617826,-1184.329507,-80133.589091
705.567298,-7550.100608,-740.205942,-77682.083497
705.569880,-5625.565159,-1036.288319,-78907.836294
705.572462,10362.883188,-444.123565,-80899.684589
705.575043,16432.571912,-1776.494261,-79520.712692
705.577625,16432.571912,-2516.700203,-78141.740796
705.580206,740.205942,-2664.741391,-78294.959896
705.582788,-6217.729913,-740.205942,-78601.398095
705.585370,-7550.100608,-1628.453072,-80899.684589
705.587951,1184.329507,-888.247130,-78907.836294
705.590533,17320.819043,-1924.535449,-79061.055394
705.593115,20281.642811,444.123565,-79673.931792
705.595696,1184.329507,-2368.659014,-81512.560987
705.598278,-4441.235652,-1924.535449,-79980.369991
705.600860,-2368.659014,-740.205942,-77835.302597
705.603441,3849.070898,-1924.535449,-77375.645298
705.606023,-740.205942,-888.247130,-77988.521696
705.608604,5773.606348,-2812.782580,-79980.369991
705.611186,7105.977043,-1480.411884,-78907.836294
705.613768,7846.182985,-592.164754,-78294.959896
705.616349,8734.430116,-1776.494261,-80286.808190
705.618931,8734.430116,-1776.494261,-78907.836294
705.621513,296.082377,-740.205942,-80133.589091
705.624094,-2072.576638,-1924.535449,-79214.274493
705.626676,1480.411884,-1776.494261,-78907.836294
705.629258,9326.594869,-1184.329507,-79367.493593
705.631839,7994.224174,-1332.370696,-78907.836294
705.634421,-8882.471304,-888.247130,-78448.178995
705.637002,-16580.613101,-1628.453072,-78754.617194
705.639584,-18801.230927,-444.123565,-79367.493593
705.642166,-2664.741391,-1332.370696,-80286.808190
705.644747,2072.576638,-1332.370696,-79214.274493
705.647329,10066.800811,-1776.494261,-78907.836294
705.649911,-3997.112087,-888.247130,-79367.493593
705.652493,-9326.594869,-1628.453072,-78754.617194
705.655076,-16876.695478,296.082377,-79520.712692
705.657659,-1184.329507,-1036.288319,-80899.684589
705.660242,3997.112087,-1184.329507,-80746.465489
705.662824,-2516.700203,-1332.370696,-79520.712692
705.665407,-444.123565,-740.205942,-77375.645298
705.667990,-5921.647536,-2072.576638,-79061.055394
705.670573,-1480.411884,0.000000,-79673.931792
705.673155,-10214.842000,-2960.823768,-77069.207099
705.675738,-8882.471304,-1036.288319,-77069.207099
705.678321,-8438.347739,-1036.288319,-79980.369991
705.680904,-3997.112087,148.041188,-79673.931792
705.683486,-3404.947333,-1036.288319,-79673.931792
705.686069,148.041188,-740.205942,-78601.398095
705.688652,-9030.512492,-1480.411884,-78601.398095
705.691235,-7550.100608,-888.247130,-77988.521696
705.693817,5477.523971,-1628.453072,-78601.398095
705.696400,19837.519246,-1184.329507,-79673.931792
705.698983,16580.613101,-2220.617826,-78907.836294
705.701566,6217.729913,-1776.494261,-78294.959896
705.704148,-4293.194464,-1184.329507,-79061.055394
705.706731,-9622.677246,-888.247130,-80286.808190
705.709314,-1332.370696,-1924.535449,-79980.369991
705.711897,11843.295072,-2072.576638,-78141.740796
705.714479,22354.219448,-1332.370696,-78294.959896
705.717062,8438.347739,-444.123565,-79673.931792
705.719645,-8734.430116,-2516.700203,-80286.808190
705.722228,2812.782580,-592.164754,-79980.369991
705.724810,-4885.359217,-2220.617826,-78907.836294
705.727393,10658.965565,-2220.617826,-75843.454302
705.729976,7402.059420,-3849.070898,-78907.836294
705.732559,11399.171507,444.123565,-78907.836294
705.735142,5921.647536,-2072.576638,-77375.645298
705.737724,9770.718434,-2220.617826,-78601.398095
705.740307,7550.100608,-1036.288319,-79673.931792
705.742890,592.164754,-1184.329507,-80746.465489
705.745473,-2960.823768,-1924.535449,-80133.589091
705.748056,3849.070898,-888.247130,-77682.083497
705.750639,10362.883188,-1628.453072,-77682.083497
705.753222,8586.388927,-1480.411884,-77988.521696
705.755805,-11547.212695,-1332.370696,-77528.864398
705.758388,-16728.654289,-888.247130,-77069.207099
705.760971,-14508.036463,-1628.453072,-79367.493593
705.763554,-2220.617826,-592.164754,-79520.712692
705.766137,4885.359217,-1628.453072,-80440.027290
705.768720,7402.059420,-1480.411884,-78601.398095
705.771303,-6809.894666,-1924.535449,-79367.493593
705.773885,-17468.860231,-888.247130,-77682.083497
705.776468,-13619.789333,-1184.329507,-81052.903688
705.779051,-3849.070898,-1924.535449,-78754.617194
705.781634,6809.894666,-1480.411884,-76456.330700
705.784217,1480.411884,-2220.617826,-79061.055394
705.786800,-5329.482782,-592.164754,-79673.931792
705.789383,-9178.553681,-1480.411884,-81512.560987
705.791966,-4293.194464,-296.082377,-79061.055394
705.794549,-10510.924376,-2368.659014,-78294.959896
705.797132,-6217.729913,-2072.576638,-79367.493593
705.799715,-6365.771101,-444.123565,-79061.055394
705.802298,-1332.370696,-1480.411884,-78754.617194
705.804881,-4589.276840,-2072.576638,-78448.178995
705.807463,-3701.029710,-740.205942,-79214.274493
705.810046,-11399.171507,-592.164754,-79673.931792
705.812629,-3849.070898,-2072.576638,-80286.808190
705.815212,11843.295072,-1184.329507,-80133.589091
705.817795,17468.860231,-888.247130,-79673.931792
705.820378,10658.965565,-2516.700203,-78141.740796
705.822961,-1184.329507,-1332.370696,-77835.302597
705.825544,-7698.141797,-1480.411884,-78601.398095
705.828127,-5921.647536,-888.247130,-79520.712692
705.830710,1776.494261,-1628.453072,-79980.369991
705.833293,10362.883188,-740.205942,-78448.178995
705.835876,21614.013506,-1480.411884,-79520.712692
705.838459,-3849.070898,-1628.453072,-80440.027290
705.841042,-4441.235652,-1480.411884,-78141.740796
705.843625,5921.647536,-1184.329507,-78294.959896
705.846209,-3108.864956,-3256.906145,-78754.617194
705.848792,13175.665768,296.082377,-79367.493593
705.851375,4441.235652,-2220.617826,-82278.656485
705.853958,11695.253884,-148.041188,-80899.684589
705.856542,9918.759623,-2368.659014,-80286.808190
705.859125,6217.729913,740.205942,-79980.369991
705.861708,2960.823768,-2516.700203,-79061.055394
705.864291,-740.205942,-1628.453072,-78141.740796
705.866874,4293.194464,-1628.453072,-77528.864398
705.869458,7105.977043,-888.247130,-78448.178995
705.872041,8734.430116,-2072.576638,-79214.274493
705.874624,-5773.606348,-148.041188,-78907.836294
705.877207,-17764.942608,-740.205942,-77375.645298
705.879791,-18653.189738,-1480.411884,-80899.684589
705.882374,-2812.782580,-740.205942,-79673.931792
705.884957,1776.494261,-888.247130,-79520.712692
705.887540,9326.594869,-2220.617826,-77682.083497
705.890124,-3701.029710,-1332.370696,-77835.302597
705.892707,-7846.182985,-1332.370696,-78601.398095
705.895290,-14359.995275,-296.082377,-79214.274493
705.897873,888.247130,444.123565,-80746.465489
705.900456,2368.659014,-1628.453072,-77835.302597
705.903040,296.082377,-2072.576638,-79367.493593
705.905623,-10658.965565,444.123565,-81665.780087
705.908206,-7402.059420,296.082377,-79980.369991
705.910789,-8142.265362,-2516.700203,-76303.111601
705.913373,-9178.553681,-2516.700203,-76915.987999
705.915956,-8290.306550,-1776.494261,-77375.645298
705.918539,-4737.318029,148.041188,-81052.903688
705.921122,-2664.741391,-2368.659014,-77375.645298
705.923706,-3997.112087,0.000000,-78448.178995
705.926289,-7254.018232,-1628.453072,-80286.808190
705.928872,-7846.182985,-592.164754,-79673.931792
705.931455,592.164754,-1036.288319,-81052.903688
705.934038,13471.748144,-1480.411884,-78601.398095
705.936622,19837.519246,-1480.411884,-78448.178995
705.939205,11103.089130,-2368.659014,-77682.083497
705.941778,-3404.947333,-1036.288319,-78294.959896
705.944361,-9178.553681,-2220.617826,-79061.055394
705.946943,-2516.700203,-1924.535449,-79520.712692
705.949525,7994.224174,-592.164754,-80286.808190
705.952107,14359.995275,-1332.370696,-78907.836294
705.954690,9474.636058,-2960.823768,-79673.931792
705.957272,-4589.276840,-296.082377,-77222.426198
705.959854,1628.453072,-1184.329507,-77988.521696
705.962437,444.123565,-1628.453072,-78754.617194
705.965019,3849.070898,-2220.617826,-76456.330700
705.967601,5921.647536,-2516.700203,-78907.836294
705.970184,9326.594869,-148.041188,-78907.836294
705.972766,10362.883188,-2072.576638,-80286.808190
705.975348,5181.441594,-1480.411884,-79673.931792
705.977931,4737.318029,-1480.411884,-79214.274493
705.980513,-1332.370696,-740.205942,-78141.740796
705.983095,3997.112087,-740.205942,-79520.712692
705.985678,5921.647536,-1036.288319,-80133.589091
705.988260,11251.130318,-1480.411884,-78601.398095
705.990842,-4145.153275,-740.205942,-79367.493593
705.993425,-12731.542202,-1184.329507,-77375.645298
705.996007,-19689.478057,-2220.617826,-79980.369991
705.998589,-9326.594869,-444.123565,-79827.150892
706.001172,-1776.494261,-592.164754,-79520.712692
706.003754,10362.883188,-740.205942,-78754.617194
706.006336,-1628.453072,-1924.535449,-77835.302597
706.008919,-8142.265362,-1184.329507,-78448.178995
706.011501,-23390.507767,-1036.288319,-80286.808190
706.014083,-6069.688724,-592.164754,-79520.712692
706.016666,3404.947333,-1628.453072,-78448.178995
706.019248,1924.535449,-1628.453072,-78907.836294
706.021830,444.123565,-2072.576638,-79061.055394
706.024413,-10658.965565,-2960.823768,-78754.617194
706.026995,-2516.700203,888.247130,-78141.740796
706.029577,-14211.954086,-3701.029710,-79214.274493
706.032160,-7846.182985,-740.205942,-79061.055394
706.034742,-7402.059420,-2072.576638,-80286.808190
706.037324,-1480.411884,-444.123565,-79520.712692
706.039906,-5181.441594,-1776.494261,-78754.617194
706.042489,-3108.864956,-888.247130,-79061.055394
706.045070,-11251.130318,-1036.288319,-77988.521696
706.047652,0.000000,-1924.535449,-79061.055394
706.050234,12731.542202,-740.205942,-79673.931792
706.052815,18357.107362,-1184.329507,-79980.369991
706.055397,13175.665768,-2072.576638,-79980.369991
706.057979,1480.411884,-1480.411884,-78448.178995
706.060560,-6809.894666,-1628.453072,-78448.178995
706.063142,-5033.400406,-888.247130,-80593.246390
706.065723,6661.853478,-1924.535449,-79827.150892
706.068305,21169.889941,-1776.494261,-78294.959896
706.070887,13915.871710,-1924.535449,-79520.712692
706.073468,-3997.112087,-444.123565,-80899.684589
706.076050,-3404.947333,-1332.370696,-80286.808190
706.078632,-148.041188,-148.041188,-79061.055394
706.081213,-444.123565,-2516.700203,-78907.836294
706.083795,10807.006753,-1924.535449,-78141.740796
706.086376,10658.965565,-444.123565,-79214.274493
706.088958,9178.553681,-2664.741391,-79673.931792
706.091540,9474.636058,-740.205942,-78907.836294
706.094121,1924.535449,-1332.370696,-78907.836294
706.096703,296.082377,-1924.535449,-78601.398095
706.099285,1184.329507,-888.247130,-78448.178995
706.101866,6661.853478,-1332.370696,-79827.150892
706.104448,10955.047942,-1184.329507,-79673.931792
706.107029,-2960.823768,-740.205942,-79061.055394
706.109611,-14211.954086,-1332.370696,-78754.617194
706.112193,-18209.066173,-2516.700203,-79367.493593
706.114774,-11103.089130,-444.123565,-80593.246390
706.117356,1480.411884,-888.247130,-79673.931792
706.119938,6069.688724,-888.247130,-78294.959896
706.122519,3849.070898,-1628.453072,-77988.521696
706.125101,-13915.871710,-1184.329507,-78754.617194
706.127682,-16728.654289,-2960.823768,-79214.274493
706.130264,-296.082377,-1036.288319,-78141.740796
706.132846,-592.164754,-2664.741391,-78141.740796
706.135427,6069.688724,-1184.329507,-79980.369991
706.138009,-5329.482782,-4293.194464,-80440.027290
706.140591,3997.112087,2516.700203,-79061.055394
706.143172,-17172.777854,-3552.988522,-80440.027290
706.145754,-10658.965565,-444.123565,-77222.426198
706.148334,-9178.553681,-2664.741391,-79673.931792
706.150914,-2220.617826,444.123565,-78754.617194
706.153494,-1332.370696,-2664.741391,-80440.027290
706.156074,-4145.153275,-740.205942,-78294.959896
706.158655,-7402.059420,-2368.659014,-79061.055394
706.161235,-8290.306550,-888.247130,-77682.083497
706.163815,-2072.576638,-1924.535449,-78754.617194
706.166395,16728.654289,-888.247130,-79673.931792
706.168975,19541.436869,-1924.535449,-79214.274493
706.171555,9178.553681,-1480.411884,-79061.055394
706.174135,-5625.565159,-2368.659014,-78294.959896
706.176715,-6069.688724,-296.082377,-80440.027290
706.179296,-3552.988522,-1924.535449,-79673.931792
706.181876,9178.553681,-1480.411884,-80593.246390
706.184456,19689.478057,-444.123565,-78448.178995
706.187036,9326.594869,0.000000,-77069.207099
706.189616,-6217.729913,-1332.370696,-80286.808190
706.192196,-592.164754,444.123565,-80899.684589
706.194776,-3552.988522,-444.123565,-81052.903688
706.197356,6661.853478,-2368.659014,-78754.617194
706.199937,12139.377449,-1924.535449,-77222.426198
706.202517,12139.377449,-1184.329507,-77682.083497
706.205097,9622.677246,-1628.453072,-81052.903688
706.207677,4145.153275,-2220.617826,-77988.521696
706.210257,-1776.494261,-1776.494261,-77988.521696
706.212837,296.082377,-1776.494261,-79673.931792
706.215417,3552.988522,-2072.576638,-80133.589091
706.217997,10955.047942,148.041188,-79827.150892
706.220578,6513.812290,-2220.617826,-79367.493593
706.223158,-9030.512492,-444.123565,-77528.864398
706.225738,-19689.478057,-1480.411884,-77682.083497
706.228318,-14508.036463,-1480.411884,-78141.740796
706.230898,592.164754,-740.205942,-78907.836294
706.233478,5033.400406,-740.205942,-79367.493593
706.236058,7994.224174,-1184.329507,-79061.055394
706.238639,-7254.018232,-1480.411884,-78601.398095
706.241219,-8290.306550,-2368.659014,-79061.055394
706.243799,-13471.748144,-1480.411884,-79980.369991
706.246379,-296.082377,148.041188,-78754.617194
706.248959,2368.659014,-3108.864956,-78294.959896
706.251538,444.123565,888.247130,-78754.617194
706.254118,-2960.823768,-2516.700203,-79980.369991
706.256697,-6217.729913,1184.329507,-81206.122788
706.259276,-14359.995275,-1776.494261,-80746.465489
706.261855,-9474.636058,-1480.411884,-79367.493593
706.264434,-6365.771101,-1480.411884,-77988.521696
706.267014,-296.082377,-148.041188,-79673.931792
706.269593,-5921.647536,-1776.494261,-80133.589091
706.272172,-6661.853478,0.000000,-77835.302597
706.274751,-11251.130318,-1776.494261,-77682.083497
706.277331,-1332.370696,-1924.535449,-77528.864398
706.279910,15100.201217,-1184.329507,-80286.808190
706.282489,17764.942608,-592.164754,-80746.465489
706.285068,12879.583391,-296.082377,-79980.369991
706.287648,-3108.864956,-2812.782580,-79367.493593
706.290227,-9918.759623,148.041188,-78601.398095
706.292806,-5625.565159,-1628.453072,-81512.560987
706.295385,6809.894666,-592.164754,-79367.493593
706.297965,7994.224174,-1332.370696,-77528.864398
706.300544,8142.265362,-888.247130,-76609.549800
706.303123,-296.082377,-2516.700203,-77528.864398
706.305702,-592.164754,-888.247130,-79673.931792
706.308282,-1776.494261,-888.247130,-76609.549800
706.310861,11251.130318,-2516.700203,-76915.987999
706.313440,7994.224174,-1776.494261,-76762.768900
706.316019,13767.830521,-1036.288319,-75383.797003
706.318599,12731.542202,-2368.659014,-77222.426198
706.321178,296.082377,-740.205942,-80899.684589
706.323757,-1036.288319,-1036.288319,-81972.218286
706.326336,-148.041188,-148.041188,-80440.027290
706.328916,8438.347739,-2072.576638,-78294.959896
706.331495,9474.636058,444.123565,-82431.875585
706.334074,-1480.411884,-740.205942,-80286.808190
706.336653,-15248.242405,-1184.329507,-77069.207099
706.339233,-18949.272115,-2368.659014,-75996.673402
706.341812,-12731.542202,-2516.700203,-78448.178995
706.344391,444.123565,-296.082377,-79520.712692
706.346970,7846.182985,-444.123565,-80593.246390
706.349550,5477.523971,-1332.370696,-78754.617194
706.352129,-9326.594869,-1628.453072,-79673.931792
706.354706,-20873.807564,740.205942,-81665.780087
706.357284,-3404.947333,-2516.700203,-81512.560987
706.359862,-5181.441594,-1036.288319,-77222.426198
706.362439,13619.789333,-1776.494261,-76762.768900
706.365017,-11695.253884,-2072.576638,-78601.398095
706.367595,-2072.576638,-296.082377,-79520.712692
706.370172,-16580.613101,-2072.576638,-81512.560987
706.372750,-11399.171507,888.247130,-77682.083497
706.375328,-9622.677246,-2664.741391,-79673.931792
706.377905,296.082377,-592.164754,-78294.959896
706.380483,-2072.576638,-2368.659014,-79673.931792
706.383061,-4441.235652,-1332.370696,-79061.055394
706.385638,-13027.624579,-1332.370696,-78754.617194
706.388216,-6217.729913,-1036.288319,-78754.617194
706.390794,6513.812290,-2220.617826,-78294.959896
706.393371,19393.395680,-1480.411884,-80133.589091
706.395949,19541.436869,444.123565,-79367.493593
706.398527,1628.453072,-1924.535449,-78907.836294
706.401104,-5921.647536,-1924.535449,-79214.274493
706.403682,-10066.800811,-1480.411884,-78907.836294
706.406259,296.082377,148.041188,-79214.274493
706.408837,6069.688724,-3108.864956,-78294.959896
706.411415,7254.018232,-3701.029710,-79520.712692
706.413992,-592.164754,-888.247130,-77988.521696
706.416570,-5033.400406,-1924.535449,-78141.740796
706.419148,-3849.070898,-1036.288319,-79061.055394
706.421725,5181.441594,-1924.535449,-80133.589091
706.424303,10362.883188,-592.164754,-78907.836294
706.426881,9474.636058,-1332.370696,-80746.465489
706.429458,14063.912898,-296.082377,-80899.684589
706.432036,3108.864956,-592.164754,-80440.027290
706.434614,-3997.112087,-1628.453072,-80899.684589
706.437191,148.041188,-888.247130,-77222.426198
706.439769,6069.688724,-3108.864956,-78141.740796
706.442347,15248.242405,-444.123565,-78141.740796
706.444924,3701.029710,-1924.535449,-79827.150892
706.447502,-9326.594869,740.205942,-79980.369991
706.450080,-22058.137072,-2812.782580,-79061.055394
706.452657,-14211.954086,-148.041188,-78448.178995
706.455235,-3404.947333,-1480.411884,-80593.246390
706.457811,7254.018232,592.164754,-80593.246390
706.460388,7550.100608,-2220.617826,-78601.398095
706.462964,-4145.153275,-1184.329507,-77682.083497
706.465541,-24722.878463,-1332.370696,-79980.369991
706.468117,-10214.842000,-592.164754,-79980.369991
706.470694,148.041188,-1332.370696,-78601.398095
706.473270,-2960.823768,-1628.453072,-77835.302597
706.475847,10066.800811,-740.205942,-78294.959896
706.478423,-10658.965565,-1184.329507,-80133.589091
706.480999,-12435.459826,-1332.370696,-79980.369991
706.483576,-17172.777854,-1332.370696,-80133.589091
706.486152,-9474.636058,-1184.329507,-77835.302597
706.488729,-444.123565,-1332.370696,-78294.959896
706.491305,-1332.370696,-1036.288319,-79061.055394
706.493882,-3552.988522,-1036.288319,-78754.617194
706.496458,-15692.365970,-1628.453072,-78294.959896
706.499035,-4441.235652,-1480.411884,-77528.864398
706.501611,8142.265362,-3256.906145,-79520.712692
706.504188,23686.590144,-1184.329507,-80593.246390
706.506764,17172.777854,-1184.329507,-80593.246390
706.509340,6217.729913,-1184.329507,-79520.712692
706.511917,-7402.059420,-1628.453072,-77835.302597
706.514493,-8586.388927,-888.247130,-80593.246390
706.517070,-888.247130,-1184.329507,-81359.341888
706.519646,12435.459826,-2072.576638,-77528.864398
706.522223,19541.436869,-296.082377,-76303.111601
706.524799,2812.782580,-2220.617826,-78754.617194
706.527376,-1480.411884,1036.288319,-80746.465489
706.529952,-2368.659014,-1480.411884,-83657.628382
706.532529,148.041188,-1480.411884,-78754.617194
706.535105,7698.141797,-1628.453072,-81972.218286
706.537681,13027.624579,-592.164754,-81359.341888
706.540258,12287.418637,-740.205942,-80133.589091
706.542834,5329.482782,-740.205942,-77835.302597
706.545411,-4589.276840,-1628.453072,-78294.959896
706.547987,-1184.329507,-1776.494261,-77988.521696
706.550564,5773.606348,-1628.453072,-79827.150892
706.553140,14508.036463,-592.164754,-81972.218286
706.555717,148.041188,-1184.329507,-79827.150892
706.558293,-16876.695478,0.000000,-80286.808190
706.560868,-20577.725188,-2368.659014,-79520.712692
706.563442,-15544.324782,-2960.823768,-79061.055394
706.566017,444.123565,-740.205942,-78141.740796
706.568591,6513.812290,-1036.288319,-78448.178995
706.571166,7994.224174,-1776.494261,-78448.178995
706.573740,-6957.935855,-1628.453072,-79980.369991
706.576315,-16876.695478,592.164754,-78448.178995
706.578889,-4441.235652,-444.123565,-81206.122788
706.581464,-6809.894666,-1924.535449,-80899.684589
706.584038,10362.883188,148.041188,-77682.083497
706.586613,-3701.029710,-3701.029710,-78448.178995
706.589187,-1480.411884,1332.370696,-76609.549800
706.591762,-19689.478057,-3552.988522,-81972.218286
706.594336,-13027.624579,740.205942,-79520.712692
706.596911,-6069.688724,-2812.782580,-77682.083497
706.599485,1480.411884,-592.164754,-78907.836294
706.602060,-2072.576638,-2516.700203,-81206.122788
706.604634,-6809.894666,148.041188,-79827.150892
706.607209,-13323.706956,-888.247130,-77988.521696
706.609783,-3256.906145,-1332.370696,-77835.302597
706.612357,14952.160028,-2368.659014,-78754.617194
706.614932,18061.024985,-592.164754,-80133.589091
706.617506,13915.871710,-2072.576638,-79520.712692
706.620081,-1332.370696,444.123565,-78448.178995
706.622655,-8142.265362,-3108.864956,-79214.274493
706.625230,-8142.265362,-592.164754,-80286.808190
706.627804,10362.883188,-1924.535449,-80286.808190
706.630379,6957.935855,296.082377,-79980.369991
706.632953,15396.283594,-2368.659014,-78294.959896
706.635528,-5329.482782,-1628.453072,-80286.808190
706.638102,2368.659014,444.123565,-78754.617194
706.640677,-6069.688724,-1924.535449,-79061.055394
706.643251,7550.100608,-1480.411884,-77835.302597
706.645826,12139.377449,-3256.906145,-77375.645298
706.648400,14656.077652,-888.247130,-78294.959896
706.650975,8882.471304,-2368.659014,-81359.341888
706.653549,-1924.535449,740.205942,-79980.369991
706.656124,-6069.688724,-2664.741391,-79061.055394
706.658698,6365.771101,-592.164754,-78754.617194
706.661273,15840.407159,-1628.453072,-78907.836294
706.663846,7698.141797,-592.164754,-80440.027290
706.666419,-11251.130318,-592.164754,-79520.712692
706.668992,-20577.725188,-888.247130,-77988.521696
706.671565,-22354.219448,-2812.782580,-78601.398095
706.674138,-4293.194464,-888.247130,-78754.617194
706.676712,6365.771101,148.041188,-79214.274493
706.679285,10955.047942,-1332.370696,-78601.398095
706.681858,-6513.812290,-2368.659014,-78141.740796
706.684431,-11843.295072,-888.247130,-78294.959896
706.687004,-14508.036463,-444.123565,-80133.589091
706.689577,2368.659014,-148.041188,-80286.808190
706.692150,740.205942,-2812.782580,-79980.369991
706.694723,5181.441594,-444.123565,-76762.768900
706.697296,-7698.141797,-1924.535449,-79520.712692
706.699869,-13619.789333,592.164754,-78907.836294
706.702443,-13471.748144,-3108.864956,-79214.274493
706.705016,-7698.141797,-1924.535449,-78294.959896
706.707589,1776.494261,-444.123565,-78448.178995
706.710162,296.082377,-444.123565,-79520.712692
706.712735,-4145.153275,-1332.370696,-79980.369991
706.715308,-14804.118840,-444.123565,-79214.274493
706.717881,-1776.494261,-740.205942,-77988.521696
706.720454,14063.912898,-2072.576638,-79061.055394
706.723027,23834.631332,-1628.453072,-79827.150892
706.725601,11843.295072,-592.164754,-79520.712692
706.728174,1184.329507,-1332.370696,-78907.836294
706.730747,-10510.924376,-1628.453072,-78141.740796
706.733320,-4885.359217,-2220.617826,-79520.712692
706.735893,10362.883188,-444.123565,-80286.808190
706.738466,16580.613101,592.164754,-78294.959896
706.741039,9622.677246,-592.164754,-78601.398095
706.743612,-4441.235652,-2812.782580,-81052.903688
706.746185,-2220.617826,592.164754,-80440.027290
706.748759,740.205942,-1628.453072,-80286.808190
706.751332,5921.647536,-2516.700203,-75690.235202
706.753905,16876.695478,-1776.494261,-76149.892501
706.756478,13471.748144,-1628.453072,-78294.959896
706.759051,3108.864956,-1184.329507,-77069.207099
706.761624,-6809.894666,-1628.453072,-78907.836294
706.764197,-2368.659014,-2072.576638,-78294.959896
706.766769,7846.182985,-1036.288319,-79520.712692
706.769342,15988.448347,-1332.370696,-81052.903688
706.771914,740.205942,-148.041188,-80746.465489
706.774486,-12583.501014,148.041188,-78448.178995
706.777058,-23834.631332,-2960.823768,-77222.426198
706.779630,-11547.212695,-444.123565,-79061.055394
706.782202,-148.041188,-2220.617826,-79214.274493
706.784775,11251.130318,0.000000,-78601.398095
706.787347,4589.276840,-1480.411884,-77835.302597
706.789919,-13323.706956,-592.164754,-78907.836294
706.792491,-22798.343014,-2516.700203,-80593.246390
706.795063,-1480.411884,-148.041188,-77835.302597
706.797635,-296.082377,-2368.659014,-78294.959896
706.800208,5181.441594,-3404.947333,-76609.549800
706.802780,2516.700203,-296.082377,-77069.207099
706.805352,-16432.571912,-2664.741391,-80440.027290
706.807924,-12731.542202,888.247130,-81972.218286
706.810496,-17764.942608,-2812.782580,-80593.246390
706.813068,-148.041188,-444.123565,-76456.330700
706.815641,-444.123565,-1924.535449,-77682.083497
706.818213,2220.617826,-1332.370696,-77835.302597
706.820785,-14211.954086,-2664.741391,-79827.150892
706.823357,-4589.276840,-1332.370696,-77835.302597
706.825929,7550.100608,-2220.617826,-79214.274493
706.828501,19097.313304,-2516.700203,-79214.274493
706.831074,19985.560434,-740.205942,-80899.684589
706.833646,6217.729913,-1184.329507,-80899.684589
706.836218,-3997.112087,-592.164754,-77835.302597
706.838790,-9918.759623,-2960.823768,-78294.959896
706.841362,5477.523971,-444.123565,-81359.341888
706.843934,2960.823768,-592.164754,-81206.122788
706.846507,18653.189738,-1184.329507,-77222.426198
706.849079,-1924.535449,-3849.070898,-76762.768900
706.851651,-3404.947333,-592.164754,-77682.083497
706.854223,2516.700203,-1924.535449,-81206.122788
706.856795,6365.771101,-296.082377,-81359.341888
706.859368,12287.418637,-2072.576638,-81052.903688
706.861940,16580.613101,-740.205942,-78907.836294
706.864512,8882.471304,-1184.329507,-80593.246390
706.867084,-4441.235652,-444.123565,-81665.780087
706.869654,-5033.400406,-1332.370696,-79980.369991
706.872225,3404.947333,-1924.535449,-77069.207099
706.874795,16136.489536,-2516.700203,-75843.454302
706.877366,7994.224174,-2072.576638,-79367.493593
706.879936,-7994.224174,-148.041188,-77835.302597
706.882507,-19393.395680,-592.164754,-76762.768900
706.885077,-19837.519246,-2960.823768,-79061.055394
706.887648,-3404.947333,-1184.329507,-80133.589091
706.890218,4737.318029,-740.205942,-80286.808190
706.892789,10362.883188,-296.082377,-78294.959896
706.895359,-6069.688724,-2812.782580,-78601.398095
706.897929,-12731.542202,-3256.906145,-77682.083497
706.900500,-16728.654289,-1480.411884,-82125.437386
706.903070,5477.523971,-296.082377,-78754.617194
706.905641,2812.782580,-3552.988522,-78141.740796
706.908211,-148.041188,-888.247130,-75383.797003
706.910782,-11843.295072,-1480.411884,-79827.150892
706.913352,-14952.160028,0.000000,-80593.246390
706.915923,-15396.283594,-2516.700203,-79520.712692
706.918493,-6661.853478,-1480.411884,-77682.083497
706.921064,444.123565,0.000000,-78601.398095
706.923634,1036.288319,-1480.411884,-78601.398095
706.926204,-12583.501014,-2072.576638,-79061.055394
706.928775,-7254.018232,-592.164754,-78754.617194
706.931345,2516.700203,-1924.535449,-78907.836294
706.933916,19837.519246,-1036.288319,-79827.150892
706.936486,17468.860231,-2516.700203,-79827.150892
706.939057,9622.677246,-148.041188,-79061.055394
706.941627,-5477.523971,-2368.659014,-80133.589091
706.944198,-8290.306550,-148.041188,-79214.274493
706.946768,-2516.700203,-2812.782580,-81359.341888
706.949339,19097.313304,-2072.576638,-77222.426198
706.951909,15100.201217,-1480.411884,-78601.398095
706.954479,2812.782580,-2072.576638,-78448.178995
706.957050,-444.123565,-1332.370696,-80899.684589
706.959620,-6661.853478,-296.082377,-80593.246390
706.962191,8142.265362,-888.247130,-80593.246390
706.964761,7994.224174,-2664.741391,-80440.027290
706.967332,17320.819043,-740.205942,-77528.864398
706.969902,10362.883188,-592.164754,-78141.740796
706.972469,-2220.617826,-2960.823768,-78601.398095
706.975038,-6069.688724,-1332.370696,-80133.589091
706.977608,1036.288319,-1036.288319,-80593.246390
706.980177,15544.324782,-592.164754,-79367.493593
706.982747,2072.576638,-740.205942,-79673.931792
706.985316,-10807.006753,-444.123565,-79367.493593
706.987886,-22354.219448,-1332.370696,-79367.493593
706.990455,-18209.066173,-2072.576638,-78448.178995
706.993024,-3404.947333,-1924.535449,-77988.521696
706.995594,5329.482782,-592.164754,-79061.055394
706.998163,9178.553681,-592.164754,-77835.302597
707.000733,-9474.636058,-1184.329507,-79214.274493
707.003302,-12731.542202,-2368.659014,-79980.369991
707.005872,-12583.501014,148.041188,-81665.780087
707.008441,740.205942,-592.164754,-80440.027290
707.011011,3552.988522,-2368.659014,-78907.836294
707.013580,-6217.729913,-2220.617826,-77375.645298
707.016149,-12583.501014,-1924.535449,-76303.111601
707.018719,-14804.118840,-888.247130,-77988.521696
707.021288,-15248.242405,-1184.329507,-79673.931792
707.023858,-1924.535449,-2812.782580,-75996.673402
707.026427,888.247130,-740.205942,-77528.864398
707.028997,-148.041188,-1036.288319,-79214.274493
707.031566,-13323.706956,-592.164754,-80593.246390
707.034136,-4589.276840,-1036.288319,-81206.122788
707.036705,9474.636058,-1036.288319,-79520.712692
707.039274,17764.942608,-1184.329507,-77835.302597
707.041844,16580.613101,-3108.864956,-77375.645298
707.044413,4885.359217,-148.041188,-78141.740796
707.046983,-7254.018232,-2960.823768,-77375.645298
707.049552,-5033.400406,-1332.370696,-78754.617194
707.052122,0.000000,-1036.288319,-79827.150892
707.054691,10362.883188,-2812.782580,-80440.027290
707.057261,12731.542202,-888.247130,-77835.302597
707.059830,6809.894666,-2516.700203,-77835.302597
707.062399,-7698.141797,-2220.617826,-80440.027290
707.064969,7550.100608,-1036.288319,-76762.768900
707.067538,10955.047942,-2664.741391,-79827.150892
707.070108,15544.324782,-1924.535449,-79061.055394
707.072677,16580.613101,-740.205942,-81972.218286
707.075246,5477.523971,-592.164754,-79367.493593
707.077814,-4145.153275,-2960.823768,-79367.493593
707.080383,-4885.359217,-2220.617826,-77528.864398
707.082952,7402.059420,-1332.370696,-79061.055394
707.085520,11103.089130,-1036.288319,-78907.836294
707.088089,-1332.370696,-1036.288319,-78294.959896
707.090657,-18653.189738,-1480.411884,-78754.617194
707.093226,-20133.601622,-1776.494261,-79673.931792
707.095794,-13619.789333,-1332.370696,-80133.589091
707.098363,1332.370696,-1628.453072,-78907.836294
707.100932,7402.059420,-1776.494261,-79214.274493
707.103500,-592.164754,-2516.700203,-78907.836294
707.106069,-14508.036463,148.041188,-79214.274493
707.108637,-20133.601622,-888.247130,-81512.560987
707.111206,3404.947333,444.123565,-78294.959896
707.113774,-1776.494261,-2220.617826,-79673.931792
707.116343,296.082377,-2812.782580,-75843.454302
707.118912,-5181.441594,-1036.288319,-79061.055394
707.121480,-10955.047942,-296.082377,-78754.617194
707.124049,-17024.736666,-1628.453072,-78907.836294
707.126617,-6661.853478,-2368.659014,-78754.617194
707.129186,-1332.370696,-1776.494261,-78907.836294
707.131755,2664.741391,740.205942,-79214.274493
707.134323,-9622.677246,-1924.535449,-80746.465489
707.136892,-5033.400406,-740.205942,-78754.617194
707.139460,4737.318029,-2072.576638,-79367.493593
707.142029,15988.448347,-592.164754,-78294.959896
707.144597,18653.189738,-1924.535449,-78141.740796
707.147166,4589.276840,-1776.494261,-77988.521696
707.149735,-2220.617826,-740.205942,-77988.521696
707.152303,-7402.059420,-1776.494261,-79061.055394
707.154872,-1332.370696,-1184.329507,-79367.493593
707.157439,14656.077652,-1036.288319,-78141.740796
707.160006,16432.571912,-1480.411884,-78907.836294
707.162574,-7846.182985,-2368.659014,-80286.808190
707.165141,1628.453072,-1332.370696,-77375.645298
707.167708,2368.659014,-1480.411884,-81972.218286
707.170276,3701.029710,-1480.411884,-80593.246390
707.172843,17912.983796,-740.205942,-80133.589091
707.175410,12287.418637,-2072.576638,-78294.959896
707.177977,4145.153275,-2368.659014,-76915.987999
707.180545,-4737.318029,-2072.576638,-78601.398095
707.183112,-444.123565,-1332.370696,-78907.836294
707.185679,12879.583391,-888.247130,-77682.083497
707.188247,5625.565159,-3108.864956,-77988.521696
707.190814,-6957.935855,592.164754,-78754.617194
707.193381,-17468.860231,-1924.535449,-80133.589091
707.195948,-20725.766376,-1036.288319,-80286.808190
707.198516,-6957.935855,-1184.329507,-80286.808190
707.201083,-740.205942,-1776.494261,-79061.055394
707.203650,10658.965565,-2516.700203,-77528.864398
707.206218,1332.370696,-2368.659014,-78448.178995
707.208785,-12435.459826,-888.247130,-78601.398095
707.211352,-15692.365970,-740.205942,-80286.808190
707.213919,1332.370696,-740.205942,-80286.808190
707.216487,-1480.411884,-888.247130,-78907.836294
707.219054,-3256.906145,-2368.659014,-77069.207099
707.221621,-4293.194464,-1776.494261,-78141.740796
707.224189,-16432.571912,0.000000,-78754.617194
707.226756,-13767.830521,-1480.411884,-78294.959896
707.229323,-5329.482782,-3849.070898,-78294.959896
707.231890,-1184.329507,0.000000,-78294.959896
707.234458,-2516.700203,-1184.329507,-80133.589091
707.237025,-10510.924376,-1036.288319,-80593.246390
707.239592,148.041188,-740.205942,-79214.274493
707.242160,9030.512492,-1924.535449,-79827.150892
707.244727,21021.848753,-296.082377,-78601.398095
707.247294,10362.883188,-2220.617826,-78294.959896
707.249861,2812.782580,-1480.411884,-78294.959896
707.252429,-8882.471304,-1480.411884,-79827.150892
707.254996,-3552.988522,-740.205942,-78448.178995
707.257563,-1628.453072,-1776.494261,-80133.589091
707.260130,8290.306550,0.000000,-77988.521696
707.262696,11991.336260,-1924.535449,-77069.207099
707.265263,-2516.700203,-3552.988522,-77528.864398
707.267829,1184.329507,-148.041188,-79367.493593
707.270395,-148.041188,-1036.288319,-79520.712692
707.272962,10066.800811,-2516.700203,-79061.055394
707.275528,15100.201217,-2516.700203,-77222.426198
707.278095,14359.995275,-1036.288319,-79827.150892
707.280661,-1332.370696,-1480.411884,-80440.027290
707.283227,-3256.906145,-1628.453072,-79980.369991
707.285794,740.205942,-2072.576638,-80133.589091
707.288360,13471.748144,-888.247130,-78907.836294
707.290927,-1628.453072,-1036.288319,-79980.369991
707.293493,-8290.306550,-888.247130,-78907.836294
707.296059,-21910.095883,-3256.906145,-78907.836294
707.298626,-12731.542202,-888.247130,-78601.398095
707.301192,-7105.977043,-2960.823768,-79214.274493
707.303759,6069.688724,-592.164754,-78907.836294
707.306325,4737.318029,-2072.576638,-78907.836294
707.308891,-11991.336260,-296.082377,-79061.055394
707.311458,-13915.871710,-3108.864956,-79367.493593
707.314024,-13471.748144,740.205942,-77682.083497
707.316591,9474.636058,-1184.329507,-79061.055394
707.319157,-1924.535449,-2960.823768,-78754.617194
707.321724,0.000000,148.041188,-78907.836294
707.324290,-16580.613101,-1776.494261,-82431.875585
707.326856,-13175.665768,1776.494261,-77835.302597
707.329423,-11251.130318,-2368.659014,-81206.122788
707.331989,-2072.576638,-888.247130,-80746.465489
707.334556,2960.823768,-888.247130,-78754.617194
707.337122,-7550.100608,-1480.411884,-78294.959896
707.339688,-4589.276840,-1480.411884,-77069.207099
707.342255,7550.100608,-1036.288319,-78601.398095
707.344821,14359.995275,-1628.453072,-80286.808190
707.347388,17172.777854,148.041188,-79214.274493
707.349954,7105.977043,-2072.576638,-78448.178995
707.352520,-3256.906145,-1036.288319,-78907.836294
707.355087,-4737.318029,-888.247130,-80286.808190
707.357653,-2812.782580,-888.247130,-81206.122788
707.360220,11547.212695,-2812.782580,-78601.398095
707.362751,14359.995275,-888.247130,-76303.111601
707.365283,-4441.235652,-1924.535449,-77682.083497
707.367815,-2368.659014,-1480.411884,-79061.055394
707.370346,-2664.741391,-2072.576638,-79980.369991
707.372878,8142.265362,-1776.494261,-78601.398095
707.375410,16136.489536,-2072.576638,-79061.055394
707.377942,16728.654289,-1628.453072,-80286.808190
707.380473,3108.864956,-148.041188,-79520.712692
707.383005,-3404.947333,-1036.288319,-80899.684589
707.385537,-3404.947333,-740.205942,-79061.055394
707.388069,14063.912898,-1776.494261,-80899.684589
707.390600,0.000000,0.000000,-80899.684589
707.393132,-9326.594869,-296.082377,-77222.426198
707.395664,-19541.436869,-2960.823768,-77835.302597
707.398195,-14804.118840,-888.247130,-77835.302597
707.400727,-7402.059420,-1184.329507,-80440.027290
707.403259,2220.617826,-296.082377,-79827.150892
707.405791,6513.812290,-1480.411884,-79827.150892
707.408322,-8142.265362,-1480.411884,-78294.959896
707.410854,-17024.736666,-1036.288319,-79520.712692
707.413386,-6069.688724,0.000000,-81206.122788
707.415917,-4441.235652,-1184.329507,-79980.369991
707.418449,8882.471304,-2812.782580,-77222.426198
707.420981,-4441.235652,-2664.741391,-76915.987999
707.423513,-9474.636058,-592.164754,-78601.398095
707.426044,-19245.354492,-888.247130,-82125.437386
707.428576,-10955.047942,-1332.370696,-78141.740796
707.431108,-2812.782580,-2664.741391,-79520.712692
707.433639,1628.453072,-148.041188,-80286.808190
707.436171,-7254.018232,-1480.411884,-79980.369991
707.438703,-3997.112087,-444.123565,-77682.083497
707.441235,9474.636058,-2812.782580,-77835.302597
707.443766,16136.489536,-296.082377,-78601.398095
707.446298,15100.201217,-2072.576638,-79827.150892
707.448830,5033.400406,-2368.659014,-77069.207099
707.451362,-3997.112087,-1480.411884,-78141.740796
707.453893,-5033.400406,-592.164754,-79827.150892
707.456425,-4293.194464,-1628.453072,-79827.150892
707.458957,12287.418637,296.082377,-78141.740796
707.461488,14952.160028,-3256.906145,-78448.178995
707.463993,-4293.194464,-1628.453072,-78601.398095
707.466498,1480.411884,-1924.535449,-79673.931792
707.469003,6365.771101,-148.041188,-80440.027290
707.471508,10066.800811,-2664.741391,-80133.589091
707.474013,15988.448347,-592.164754,-80440.027290
707.476517,13323.706956,-1036.288319,-79980.369991
707.479022,3108.864956,-1776.494261,-78601.398095
707.481527,-1776.494261,-740.205942,-77835.302597
707.484032,-1036.288319,-1480.411884,-78601.398095
707.486537,12139.377449,-1776.494261,-79520.712692
707.489042,-1036.288319,-1628.453072,-78907.836294
707.491547,-11251.130318,-296.082377,-78141.740796
707.494051,-19837.519246,-1184.329507,-78907.836294
707.496556,-15988.448347,-1480.411884,-80899.684589
707.499061,-3404.947333,-1184.329507,-80133.589091
707.501566,5477.523971,-444.123565,-78754.617194
707.504071,7994.224174,-2368.659014,-78141.740796
707.506576,-9622.677246,1036.288319,-79827.150892
707.509080,-10214.842000,-1480.411884,-77988.521696
707.511585,-5773.606348,-1184.329507,-79520.712692
707.514090,-444.123565,-444.123565,-79673.931792
707.516595,3552.988522,-1036.288319,-80899.684589
707.519100,-2072.576638,-592.164754,-79367.493593
707.521605,-14656.077652,-1776.494261,-79827.150892
707.524110,-15692.365970,-1480.411884,-78448.178995
707.526614,-11251.130318,-740.205942,-77375.645298
707.529119,-1184.329507,-1036.288319,-78907.836294
707.531624,-888.247130,-1776.494261,-77835.302597
707.534129,-6513.812290,-1184.329507,-77069.207099
707.536634,444.123565,-1184.329507,-78601.398095
707.539139,11695.253884,-2368.659014,-80286.808190
707.541643,17320.819043,-444.123565,-81818.999186
707.544148,11547.212695,-1480.411884,-79214.274493
707.546653,2072.576638,-2220.617826,-78294.959896
707.549158,-5033.400406,-2664.741391,-79520.712692
707.551663,1628.453072,-740.205942,-79827.150892
707.554168,9326.594869,-592.164754,-79673.931792
707.556673,11547.212695,-1036.288319,-79980.369991
707.559177,5773.606348,-1480.411884,-79520.712692
707.561682,-9474.636058,-2960.823768,-77682.083497
707.564199,10362.883188,-296.082377,-77069.207099
707.566717,-2664.741391,-3849.070898,-81359.341888
707.569234,19985.560434,-888.247130,-81052.903688
707.571751,15544.324782,-1480.411884,-81665.780087
707.574268,7105.977043,-1480.411884,-79214.274493
707.576785,296.082377,-2072.576638,-77375.645298
707.579302,-4293.194464,-1776.494261,-77988.521696
707.581819,11695.253884,-1036.288319,-78907.836294
707.584336,3701.029710,-444.123565,-80440.027290
707.586854,-6809.894666,-740.205942,-79214.274493
707.589371,-19097.313304,-2220.617826,-78754.617194
707.591888,-14508.036463,-1036.288319,-79827.150892
707.594405,-6365.771101,-1184.329507,-80746.465489
707.596922,2072.576638,-888.247130,-80133.589091
707.599439,2368.659014,-1628.453072,-78448.178995
707.601956,-444.123565,-4441.235652,-76609.549800
707.604473,-14211.954086,-296.082377,-77069.207099
707.606991,-8734.430116,-444.123565,-79061.055394
707.609508,4145.153275,148.041188,-77069.207099
707.612025,-6365.771101,-4737.318029,-78754.617194
707.614542,2664.741391,-148.041188,-76915.987999
707.617059,-14063.912898,-1480.411884,-80746.465489
707.619576,-15988.448347,-592.164754,-80133.589091
707.622093,-11843.295072,-1184.329507,-80899.684589
707.624611,-5773.606348,-2368.659014,-77988.521696
707.627128,1332.370696,-1332.370696,-77069.207099
707.629645,-6069.688724,-888.247130,-80133.589091
707.632162,3256.906145,-1480.411884,-77988.521696
707.634679,10510.924376,-2220.617826,-79214.274493
707.637196,17912.983796,-740.205942,-79673.931792
707.639713,9326.594869,-2368.659014,-79980.369991
707.642230,5033.400406,-1036.288319,-78754.617194
707.644748,-6365.771101,-2368.659014,-79520.712692
707.647265,-1036.288319,0.000000,-79061.055394
707.649782,740.205942,296.082377,-81052.903688
707.652299,15396.283594,-1332.370696,-80899.684589
707.654816,444.123565,-2368.659014,-77988.521696
707.657333,3108.864956,-1480.411884,-77682.083497
707.659850,-4441.235652,-1480.411884,-78294.959896
707.662368,3997.112087,592.164754,-80440.027290
707.664862,12583.501014,-3701.029710,-81206.122788
707.667356,16580.613101,0.000000,-78448.178995
707.669851,7254.018232,-1776.494261,-79214.274493
707.672345,-1776.494261,0.000000,-79214.274493
707.674840,-2812.782580,-1776.494261,-79214.274493
707.677334,10066.800811,-1036.288319,-78448.178995
707.679828,2368.659014,-1628.453072,-78448.178995
707.682323,-4293.194464,-592.164754,-77835.302597
707.684817,-19245.354492,-2368.659014,-78141.740796
707.687312,-15988.448347,-296.082377,-78907.836294
707.689806,-7550.100608,-2220.617826,-80133.589091
707.692301,1628.453072,-592.164754,-80133.589091
707.694795,4145.153275,-1776.494261,-79673.931792
707.697289,4589.276840,444.123565,-77222.426198
707.699784,-15692.365970,-2516.700203,-79827.150892
707.702278,-8290.306550,-148.041188,-79673.931792
707.704773,-1480.411884,-1332.370696,-79980.369991
707.707267,1924.535449,-740.205942,-78754.617194
707.709762,-7994.224174,-3108.864956,-79673.931792
707.712256,-11103.089130,444.123565,-78754.617194
707.714750,-16136.489536,-1332.370696,-78601.398095
707.717245,-11695.253884,-2368.659014,-77682.083497
707.719739,-4885.359217,-1184.329507,-79061.055394
707.722234,-1628.453072,-1036.288319,-79367.493593
707.724728,-5329.482782,-740.205942,-79673.931792
707.727223,3108.864956,-1924.535449,-79673.931792
707.729717,11103.089130,-1480.411884,-78907.836294
707.732211,19393.395680,-1036.288319,-79980.369991
707.734706,5625.565159,-2072.576638,-79061.055394
707.737200,3404.947333,-1184.329507,-77835.302597
707.739695,-5181.441594,-3108.864956,-77988.521696
707.742189,-740.205942,148.041188,-78907.836294
707.744684,3701.029710,-3552.988522,-79673.931792
707.747178,12139.377449,-888.247130,-78754.617194
707.749672,-592.164754,-2960.823768,-79367.493593
707.752167,1776.494261,-1184.329507,-76762.768900
707.754661,-3552.988522,-2220.617826,-79214.274493
707.757156,6513.812290,-296.082377,-78907.836294
707.759650,12731.542202,-2516.700203,-79061.055394
707.762144,15840.407159,-148.041188,-78141.740796
707.764654,5329.482782,-2516.700203,-79520.712692
707.767164,2516.700203,-1036.288319,-79367.493593
707.769674,-592.164754,-888.247130,-79214.274493
707.772183,10807.006753,-1036.288319,-80133.589091
707.774693,-2516.700203,-1184.329507,-80593.246390
707.777203,-10066.800811,-888.247130,-79061.055394
707.779712,-18949.272115,-2072.576638,-77835.302597
707.782222,-14211.954086,-888.247130,-78448.178995
707.784732,-5033.400406,-1924.535449,-79061.055394
707.787241,1776.494261,0.000000,-79367.493593
707.789751,148.041188,-1184.329507,-78601.398095
707.792261,-4441.235652,-3552.988522,-78754.617194
707.794771,-16136.489536,-2220.617826,-78601.398095
707.797280,-10362.883188,592.164754,-78601.398095
707.799790,148.041188,-1776.494261,-80286.808190
707.802300,-5625.565159,-1776.494261,-79214.274493
707.804809,-6957.935855,-2220.617826,-77528.864398
707.807319,-14508.036463,-1184.329507,-80440.027290
707.809829,-13915.871710,-740.205942,-78448.178995
707.812338,-9474.636058,-2812.782580,-78907.836294
707.814848,-740.205942,-888.247130,-78294.959896
707.817358,-3404.947333,-1184.329507,-79673.931792
707.819868,-3256.906145,-1480.411884,-78754.617194
707.822377,8734.430116,-1480.411884,-80286.808190
707.824887,14656.077652,-2220.617826,-79980.369991
707.827397,15692.365970,-740.205942,-79061.055394
707.829906,2516.700203,-2072.576638,-79520.712692
707.832416,-592.164754,-740.205942,-78601.398095
707.834926,-5477.523971,-1628.453072,-79367.493593
707.837435,-888.247130,-1332.370696,-79061.055394
707.839945,9918.759623,-148.041188,-77988.521696
707.842455,11991.336260,-2220.617826,-77682.083497
707.844965,592.164754,148.041188,-79980.369991
707.847474,8290.306550,-1628.453072,-76456.330700
707.849984,-148.041188,-1036.288319,-78601.398095
707.852494,15396.283594,444.123565,-80899.684589
707.855003,11103.089130,-3256.906145,-83964.066581
707.857513,12435.459826,1332.370696,-79980.369991
707.860023,1036.288319,-3404.947333,-78754.617194
707.862532,444.123565,-1480.411884,-75383.797003
707.865022,4885.359217,-2664.741391,-78754.617194
707.867512,2072.576638,-1036.288319,-77835.302597
707.870002,-6069.688724,-1628.453072,-77069.207099
707.872492,-18505.148550,-1184.329507,-77988.521696
707.874982,-16136.489536,-1628.453072,-79827.150892
707.877472,-8142.265362,-296.082377,-80899.684589
707.879962,148.041188,-1184.329507,-79061.055394
707.882452,3256.906145,-1036.288319,-79214.274493
707.884942,1036.288319,-3256.906145,-76149.892501
707.887432,-10066.800811,-1776.494261,-80593.246390
707.889922,-9326.594869,-1924.535449,-77069.207099
707.892412,3997.112087,148.041188,-77375.645298
707.894902,-7105.977043,-3404.947333,-79980.369991
707.897392,-2664.741391,-592.164754,-77682.083497
707.899882,-13619.789333,-2812.782580,-80286.808190
707.902372,-15100.201217,-296.082377,-77988.521696
707.904862,-11399.171507,-2368.659014,-80133.589091
707.907352,-1924.535449,-1184.329507,-79520.712692
707.909842,-4589.276840,-1480.411884,-79061.055394
707.912332,-1036.288319,-1332.370696,-79980.369991
707.914822,6809.894666,-1480.411884,-78754.617194
707.917312,15248.242405,-1924.535449,-80440.027290
707.919802,14063.912898,-1776.494261,-78294.959896
707.922292,7550.100608,-1184.329507,-78601.398095
707.924782,2812.782580,-1924.535449,-78294.959896
707.927272,-3849.070898,-1184.329507,-79367.493593
707.929762,8734.430116,-1776.494261,-78907.836294
707.932252,7550.100608,-1480.411884,-80133.589091
707.934742,7105.977043,-1036.288319,-79827.150892
707.937232,-148.041188,-1184.329507,-78601.398095
707.939722,2812.782580,-2516.700203,-77682.083497
707.942212,3256.906145,-1036.288319,-79673.931792
707.944702,10066.800811,-1332.370696,-80133.589091
707.947192,16580.613101,-1628.453072,-77528.864398
707.949682,9178.553681,-2812.782580,-79673.931792
707.952172,2960.823768,-444.123565,-80440.027290
707.954662,-2960.823768,-1332.370696,-79980.369991
707.957151,8734.430116,-1332.370696,-78141.740796
707.959641,3552.988522,-1776.494261,-78754.617194
707.962131,-4589.276840,-1036.288319,-78601.398095
707.964634,-17616.901420,-1480.411884,-78448.178995
707.967142,-14656.077652,-1036.288319,-78448.178995
707.969649,-9030.512492,-1628.453072,-79061.055394
707.972156,1036.288319,-1776.494261,-79367.493593
707.974663,6365.771101,-1332.370696,-78601.398095
707.977170,-6809.894666,-1776.494261,-80133.589091
707.979677,-16876.695478,-1480.411884,-78448.178995
707.982185,-2072.576638,444.123565,-77069.207099
707.984692,-2960.823768,-2516.700203,-79827.150892
707.987199,-5181.441594,-2516.700203,-77835.302597
707.989706,-6069.688724,-1628.453072,-77528.864398
707.992213,-16728.654289,-1480.411884,-76762.768900
707.994721,-12879.583391,-2072.576638,-78907.836294
707.997228,-10658.965565,-740.205942,-79061.055394
707.999735,148.041188,-1628.453072,-80286.808190
708.002242,-7698.141797,-740.205942,-79367.493593
708.004749,2664.741391,-1480.411884,-78294.959896
708.007257,11547.212695,-1184.329507,-81665.780087
708.009764,15396.283594,-1332.370696,-79061.055394
708.012271,12731.542202,-2220.617826,-78601.398095
708.014778,2072.576638,-1628.453072,-78294.959896
708.017285,-1332.370696,-1776.494261,-78294.959896
708.019793,-5921.647536,-1184.329507,-79980.369991
708.022300,10807.006753,-1036.288319,-79827.150892
708.024807,8882.471304,-1480.411884,-79214.274493
708.027314,3404.947333,-1332.370696,-78141.740796
708.029821,740.205942,592.164754,-79980.369991
708.032328,-4145.153275,-3701.029710,-80440.027290
708.034836,9770.718434,888.247130,-78601.398095
708.037343,11695.253884,-2516.700203,-78754.617194
708.039850,16136.489536,592.164754,-77222.426198
708.042357,3701.029710,-2516.700203,-80746.465489
708.044864,3701.029710,-888.247130,-79673.931792
708.047372,2072.576638,-2072.576638,-79367.493593
708.049879,7105.977043,-1332.370696,-78448.178995
708.052386,-3849.070898,-1628.453072,-79673.931792
708.054893,-11991.336260,148.041188,-79214.274493
708.057400,-19393.395680,-2072.576638,-78907.836294
708.059908,-11991.336260,-888.247130,-79980.369991
708.062415,-4589.276840,-1332.370696,-78601.398095
708.064937,5181.441594,-1332.370696,-79367.493593
708.067459,-2368.659014,-2220.617826,-77682.083497
708.069980,-7402.059420,0.000000,-77835.302597
708.072502,-15100.201217,-3108.864956,-79061.055394
708.075024,1924.535449,296.082377,-78601.398095
708.077546,1480.411884,-1776.494261,-80286.808190
708.080068,-5181.441594,-1480.411884,-77528.864398
708.082590,-7550.100608,-1332.370696,-78907.836294
708.085112,-14804.118840,-1184.329507,-80133.589091
708.087634,-13175.665768,-592.164754,-79061.055394
708.090156,-5033.400406,-1776.494261,-79520.712692
708.092678,-4145.153275,592.164754,-78294.959896
708.095200,-4441.235652,-1924.535449,-80286.808190
708.097721,7402.059420,-1480.411884,-79214.274493
708.100243,13471.748144,-1036.288319,-79827.150892
708.102765,16284.530724,-2072.576638,-79214.274493
708.105287,4589.276840,-1036.288319,-78754.617194
708.107809,2072.576638,-1184.329507,-78601.398095
708.110331,-6513.812290,-2812.782580,-79367.493593
708.112853,3997.112087,-740.205942,-79367.493593
708.115375,7550.100608,-740.205942,-79061.055394
708.117897,12583.501014,-592.164754,-79214.274493
708.120419,1036.288319,-1036.288319,-80593.246390
708.122940,-6661.853478,-1184.329507,-80286.808190
708.125462,-148.041188,-148.041188,-81512.560987
708.127984,12583.501014,-148.041188,-81359.341888
708.130506,13323.706956,-3701.029710,-79214.274493
708.133028,12435.459826,-1036.288319,-77682.083497
708.135550,444.123565,-2664.741391,-79214.274493
708.138072,-1924.535449,-148.041188,-78448.178995
708.140594,5181.441594,-2072.576638,-80133.589091
708.143116,3552.988522,-592.164754,-79520.712692
708.145638,-9178.553681,-1036.288319,-78141.740796
708.148160,-18505.148550,-888.247130,-79367.493593
708.150681,-14508.036463,-2072.576638,-80746.465489
708.153203,-7402.059420,-1480.411884,-79367.493593
708.155725,2812.782580,-1184.329507,-77988.521696
708.158247,4145.153275,-1924.535449,-78294.959896
708.160769,-4145.153275,-888.247130,-77835.302597
708.163291,-6069.688724,1628.453072,-81052.903688
708.165793,-8734.430116,-1628.453072,-79061.055394
708.168295,-3404.947333,-1184.329507,-77835.302597
708.170796,2516.700203,-2220.617826,-80133.589091
708.173298,-8586.388927,-1036.288319,-77222.426198
708.175800,-12139.377449,-1924.535449,-80746.465489
708.178302,-15544.324782,-1036.288319,-79520.712692
708.180804,-8438.347739,-1036.288319,-77375.645298
708.183305,-4737.318029,-1628.453072,-78294.959896
708.185807,-2812.782580,-444.123565,-77682.083497
708.188309,3701.029710,-1184.329507,-79214.274493
708.190811,15988.448347,-1332.370696,-78448.178995
708.193313,12731.542202,-1924.535449,-79214.274493
708.195815,10214.842000,-444.123565,-78907.836294
708.198316,1184.329507,-2220.617826,-79214.274493
708.200818,-3849.070898,-1184.329507,-78601.398095
708.203320,-3997.112087,-1036.288319,-79673.931792
708.205822,5033.400406,-2368.659014,-79827.150892
708.208324,11547.212695,-1036.288319,-77375.645298
708.210825,148.041188,-1924.535449,-78141.740796
708.213327,-2368.659014,-740.205942,-78907.836294
708.215829,-1924.535449,-740.205942,-82891.532884
708.218331,9326.594869,-1776.494261,-80286.808190
708.220833,15248.242405,-1332.370696,-76915.987999
708.223335,13767.830521,-3404.947333,-77222.426198
708.225836,3404.947333,-1036.288319,-79520.712692
708.228338,-4145.153275,-888.247130,-79827.150892
708.230840,9474.636058,-1924.535449,-77682.083497
708.233342,0.000000,-888.247130,-78448.178995
708.235844,-5625.565159,-1480.411884,-79061.055394
708.238345,-18949.272115,-296.082377,-80286.808190
708.240847,-12879.583391,-1332.370696,-80593.246390
708.243349,-8734.430116,-1184.329507,-79061.055394
708.245851,3552.988522,-592.164754,-79214.274493
708.248353,5329.482782,-2368.659014,-79214.274493
708.250854,-5181.441594,-296.082377,-78294.959896
708.253356,-14656.077652,-888.247130,-80133.589091
708.255858,-2516.700203,-1628.453072,-80746.465489
708.258360,-4441.235652,-444.123565,-79214.274493
708.260862,1184.329507,-1036.288319,-76915.987999
708.263364,-5921.647536,-1924.535449,-77682.083497
708.265882,-17172.777854,-888.247130,-77835.302597
708.268400,-13767.830521,-148.041188,-78141.740796
708.270918,-11251.130318,-1924.535449,-79214.274493
708.273437,-3997.112087,-1036.288319,-78754.617194
708.275955,-4441.235652,-444.123565,-79367.493593
708.278473,4737.318029,-2072.576638,-79673.931792
708.280991,14508.036463,-1332.370696,-79827.150892
708.283510,14211.954086,-296.082377,-79980.369991
708.286028,6069.688724,-3108.864956,-78907.836294
708.288546,2220.617826,-888.247130,-77682.083497
708.291064,-5033.400406,-1924.535449,-78754.617194
708.293583,-2812.782580,444.123565,-79673.931792
708.296101,8882.471304,-2220.617826,-78754.617194
708.298619,15988.448347,-1332.370696,-77375.645298
708.301138,-3849.070898,-3404.947333,-79673.931792
708.303656,3256.906145,-1332.370696,-78754.617194
708.306174,4441.235652,-1036.288319,-79827.150892
708.308692,11695.253884,-1184.329507,-78754.617194
708.311211,17616.901420,-1924.535449,-78907.836294
708.313729,10807.006753,-3256.906145,-79980.369991
708.316247,4145.153275,888.247130,-79673.931792
708.318765,-1184.329507,-2368.659014,-81359.341888
708.321284,6661.853478,-148.041188,-77682.083497
708.323802,-740.205942,-1924.535449,-79673.931792
708.326320,-9918.759623,-148.041188,-78601.398095
708.328838,-17764.942608,-2072.576638,-78601.398095
708.331357,-12287.418637,-888.247130,-79673.931792
708.333875,-6069.688724,-740.205942,-79367.493593
708.336393,2368.659014,-592.164754,-78601.398095
708.338912,6069.688724,-3404.947333,-78141.740796
708.341430,-5773.606348,-148.041188,-79827.150892
708.343948,-12139.377449,-1924.535449,-79673.931792
708.346466,-2072.576638,-444.123565,-79520.712692
708.348985,1036.288319,-1628.453072,-79520.712692
708.351503,-5181.441594,-1480.411884,-78294.959896
708.354021,-9474.636058,-740.205942,-77069.207099
708.356539,-16876.695478,-444.123565,-78601.398095
708.359058,-14508.036463,-1036.288319,-79673.931792
708.361576,-7254.018232,-1628.453072,-79061.055394
708.364094,-4441.235652,-1184.329507,-78448.178995
708.366626,-888.247130,-1184.329507,-77682.083497
708.369158,12879.583391,-2812.782580,-80133.589091
708.371690,13619.789333,-740.205942,-80440.027290
