#time,accel_x,accel_y,accel_z
269.206748,-1776.494261,296.082377,-78294.959896
269.209249,-5921.647536,-1480.411884,-77375.645298
269.211749,12287.418637,2072.576638,-77069.207099
269.214249,9178.553681,-5181.441594,-78601.398095
269.216750,7698.141797,1184.329507,-76456.330700
269.219250,3849.070898,148.041188,-78448.178995
269.221750,2368.659014,-4737.318029,-79520.712692
269.224251,-4737.318029,2368.659014,-75077.358804
269.226751,5477.523971,0.000000,-77222.426198
269.229251,6217.729913,-5033.400406,-79214.274493
269.231752,5625.565159,148.041188,-74311.263306
269.234302,3997.112087,296.082377,-77682.083497
269.236852,6217.729913,-3404.947333,-78448.178995
269.239402,-5625.565159,0.000000,-78294.959896
269.241952,-8586.388927,1628.453072,-75077.358804
269.244502,-6365.771101,-4293.194464,-78141.740796
269.247052,-10066.800811,-1184.329507,-76149.892501
269.249602,296.082377,3701.029710,-77988.521696
269.252152,5773.606348,-5477.523971,-78448.178995
269.254701,0.000000,-4145.153275,-78294.959896
269.257251,-10807.006753,2664.741391,-75843.454302
269.259801,-1036.288319,-1184.329507,-77835.302597
269.262351,-11991.336260,-4589.276840,-78601.398095
269.264901,-3552.988522,4441.235652,-76303.111601
269.267451,4737.318029,-3552.988522,-78907.836294
269.270001,3108.864956,-2220.617826,-77069.207099
269.272551,-7994.224174,2960.823768,-78294.959896
269.275101,-2516.700203,1776.494261,-76303.111601
269.277651,1332.370696,-3701.029710,-79673.931792
269.280201,-3108.864956,1480.411884,-78754.617194
269.282751,740.205942,592.164754,-76609.549800
269.285301,2516.700203,-4293.194464,-77222.426198
269.287851,-3849.070898,-296.082377,-77682.083497
269.290401,-2812.782580,2368.659014,-78294.959896
269.292951,-5773.606348,-4441.235652,-79367.493593
269.295501,-13027.624579,740.205942,-75383.797003
269.298051,-5773.606348,3552.988522,-76762.768900
269.300601,2960.823768,-3849.070898,-77528.864398
269.303151,-2960.823768,-1036.288319,-75383.797003
269.305701,-3404.947333,0.000000,-79061.055394
269.308251,740.205942,-2516.700203,-79061.055394
269.310801,-10066.800811,-3256.906145,-77375.645298
269.313351,-7846.182985,4145.153275,-76303.111601
269.315901,-1924.535449,-5329.482782,-78907.836294
269.318451,1036.288319,444.123565,-77835.302597
269.321001,-740.205942,2516.700203,-76456.330700
269.323551,-592.164754,296.082377,-78448.178995
269.326101,-6217.729913,-5477.523971,-78907.836294
269.328651,-8438.347739,2072.576638,-76762.768900
269.331201,14508.036463,-1628.453072,-78294.959896
269.333751,14508.036463,-2516.700203,-77682.083497
269.336332,2664.741391,592.164754,-79061.055394
269.338912,5921.647536,-888.247130,-79061.055394
269.341493,-2368.659014,-3997.112087,-79061.055394
269.344073,-6661.853478,740.205942,-77222.426198
269.346654,8142.265362,1332.370696,-78448.178995
269.349234,15544.324782,-5181.441594,-79214.274493
269.351815,4737.318029,1332.370696,-74617.701505
269.354395,1924.535449,-740.205942,-77835.302597
269.356976,-444.123565,-2664.741391,-78754.617194
269.359557,-5625.565159,444.123565,-77375.645298
269.362137,4441.235652,2072.576638,-77528.864398
269.364718,10214.842000,-2220.617826,-79061.055394
269.367298,1332.370696,-1628.453072,-78448.178995
269.369879,740.205942,888.247130,-77375.645298
269.372459,-1924.535449,-2812.782580,-75690.235202
269.375040,1332.370696,888.247130,-77682.083497
269.377621,-5921.647536,740.205942,-79673.931792
269.380201,7698.141797,-444.123565,-78448.178995
269.382782,7846.182985,-4589.276840,-77528.864398
269.385362,-14952.160028,4293.194464,-77222.426198
269.387943,5625.565159,2220.617826,-77222.426198
269.390523,8290.306550,-3404.947333,-79673.931792
269.393104,5773.606348,2072.576638,-77835.302597
269.395684,13323.706956,-592.164754,-77682.083497
269.398265,8586.388927,-5625.565159,-79061.055394
269.400846,-6661.853478,2812.782580,-77375.645298
269.403426,740.205942,-592.164754,-76609.549800
269.406007,3701.029710,-4441.235652,-78601.398095
269.408587,1924.535449,1332.370696,-77069.207099
269.411168,7402.059420,1332.370696,-77528.864398
269.413748,6513.812290,-3404.947333,-78141.740796
269.416329,-5181.441594,-2960.823768,-77069.207099
269.418909,-5477.523971,1776.494261,-76609.549800
269.421490,7105.977043,-4441.235652,-79061.055394
269.424071,2072.576638,592.164754,-77835.302597
269.426651,-592.164754,1036.288319,-78294.959896
269.429232,-7550.100608,-3256.906145,-77835.302597
269.431812,-13767.830521,-5033.400406,-77069.207099
269.434393,-5625.565159,3701.029710,-77835.302597
269.436973,7698.141797,-888.247130,-79367.493593
269.439570,3701.029710,-2960.823768,-78907.836294
269.442166,-5181.441594,1924.535449,-76762.768900
269.444762,-5181.441594,-2812.782580,-77069.207099
269.447359,-14952.160028,-2664.741391,-77835.302597
269.449955,-6513.812290,3701.029710,-78294.959896
269.452551,8734.430116,-1332.370696,-79673.931792
269.455148,9326.594869,-4737.318029,-79061.055394
269.457744,-6661.853478,1628.453072,-75537.016103
269.460340,-1184.329507,-888.247130,-77835.302597
269.462937,-11843.295072,-3108.864956,-79980.369991
269.465533,-9030.512492,2368.659014,-77835.302597
269.468129,7550.100608,592.164754,-76915.987999
269.470726,2220.617826,-4885.359217,-77375.645298
269.473322,-5181.441594,2368.659014,-77375.645298
269.475918,-2812.782580,-148.041188,-77835.302597
269.478514,2516.700203,-4145.153275,-79673.931792
269.481111,3404.947333,-1036.288319,-77988.521696
269.483707,-3849.070898,2812.782580,-77835.302597
269.486303,592.164754,-4589.276840,-77375.645298
269.488900,-11695.253884,-1480.411884,-77222.426198
269.491496,-11695.253884,592.164754,-76456.330700
269.494092,-3256.906145,-3404.947333,-80286.808190
269.496689,-5181.441594,0.000000,-78294.959896
269.499285,296.082377,3552.988522,-75230.577904
269.501881,4737.318029,-2220.617826,-78601.398095
269.504478,-3997.112087,-3997.112087,-77682.083497
269.507074,-14359.995275,1924.535449,-76762.768900
269.509670,-2368.659014,1036.288319,-78448.178995
269.512267,-3256.906145,-2960.823768,-78907.836294
269.514863,-2072.576638,1924.535449,-76915.987999
269.517459,11991.336260,-2368.659014,-77682.083497
269.520056,-1036.288319,-3108.864956,-77835.302597
269.522652,-14359.995275,2368.659014,-77528.864398
269.525248,-1776.494261,-1480.411884,-77682.083497
269.527845,12583.501014,-2072.576638,-78601.398095
269.530441,9622.677246,-296.082377,-77682.083497
269.533037,9326.594869,296.082377,-77682.083497
269.535634,3552.988522,-2812.782580,-77375.645298
269.538230,-11103.089130,1184.329507,-75996.673402
269.540826,-6513.812290,296.082377,-77375.645298
269.543431,6809.894666,-5181.441594,-78907.836294
269.546036,8290.306550,-2516.700203,-78294.959896
269.548641,5921.647536,1924.535449,-77222.426198
269.551247,5773.606348,-3997.112087,-78294.959896
269.553852,-7254.018232,-1184.329507,-78754.617194
269.556457,-6365.771101,1480.411884,-76915.987999
269.559062,15544.324782,-3256.906145,-77835.302597
269.561667,2812.782580,-888.247130,-78294.959896
269.564272,9030.512492,1628.453072,-79367.493593
269.566877,4293.194464,-5181.441594,-79980.369991
269.569482,-1776.494261,1628.453072,-77528.864398
269.572087,-4737.318029,740.205942,-77682.083497
269.574692,7550.100608,-592.164754,-76303.111601
269.577298,5033.400406,-2664.741391,-76762.768900
269.579903,-1184.329507,-148.041188,-79673.931792
269.582508,-1628.453072,2516.700203,-78448.178995
269.585113,3701.029710,-6069.688724,-77835.302597
269.587718,3404.947333,5033.400406,-75230.577904
269.590323,11991.336260,1332.370696,-75996.673402
269.592928,10362.883188,-4589.276840,-75537.016103
269.595533,-2516.700203,-2664.741391,-76609.549800
269.598138,-2664.741391,2812.782580,-79980.369991
269.600743,1776.494261,-4293.194464,-78754.617194
269.603349,1036.288319,1332.370696,-76762.768900
269.605954,8586.388927,148.041188,-77528.864398
269.608559,9326.594869,-2664.741391,-79061.055394
269.611164,-5921.647536,-1480.411884,-77682.083497
269.613769,-4737.318029,0.000000,-77682.083497
269.616374,9178.553681,-592.164754,-79673.931792
269.618979,-1184.329507,-1628.453072,-78294.959896
269.621584,-10214.842000,3849.070898,-77528.864398
269.624189,-4589.276840,-5477.523971,-77222.426198
269.626794,-8882.471304,-2812.782580,-77222.426198
269.629400,-3552.988522,1184.329507,-77988.521696
269.632005,5181.441594,3256.906145,-78907.836294
269.634610,296.082377,-6809.894666,-78294.959896
269.637215,-10362.883188,2072.576638,-75383.797003
269.639820,-9474.636058,-2960.823768,-77069.207099
269.642425,-4885.359217,-888.247130,-77682.083497
269.645030,-5181.441594,-592.164754,-79367.493593
269.647638,12583.501014,2072.576638,-78907.836294
269.650244,4441.235652,-3849.070898,-77528.864398
269.652851,-13471.748144,-296.082377,-76303.111601
269.655457,-7254.018232,-1184.329507,-77222.426198
269.658064,4885.359217,-3256.906145,-77682.083497
269.660670,-5329.482782,444.123565,-79214.274493
269.663277,9178.553681,4293.194464,-79367.493593
269.665884,-2072.576638,-7402.059420,-78294.959896
269.668490,-1924.535449,-740.205942,-75383.797003
269.671097,-5477.523971,-444.123565,-77069.207099
269.673703,148.041188,-592.164754,-78754.617194
269.676310,1628.453072,-3108.864956,-78141.740796
269.678916,-11103.089130,592.164754,-79061.055394
269.681523,-3404.947333,-1332.370696,-76303.111601
269.684130,-10658.965565,-2664.741391,-77528.864398
269.686736,-10362.883188,3404.947333,-79673.931792
269.689343,2812.782580,-1480.411884,-78601.398095
269.691949,2960.823768,-3849.070898,-78294.959896
269.694556,-3108.864956,3997.112087,-77835.302597
269.697162,-1184.329507,-3701.029710,-77528.864398
269.699769,-7105.977043,-4737.318029,-77375.645298
269.702376,-11399.171507,740.205942,-77375.645298
269.704982,1628.453072,2516.700203,-77988.521696
269.707589,9622.677246,-2960.823768,-79061.055394
269.710195,-2368.659014,592.164754,-77069.207099
269.712802,-4293.194464,-148.041188,-77069.207099
269.715408,-4589.276840,-4737.318029,-77835.302597
269.718015,-1036.288319,1036.288319,-78448.178995
269.720622,15248.242405,2072.576638,-79367.493593
269.723228,15692.365970,-5033.400406,-79061.055394
269.725835,0.000000,-1628.453072,-77528.864398
269.728441,-4589.276840,444.123565,-77069.207099
269.731048,-592.164754,-888.247130,-77988.521696
269.733654,-1776.494261,-2516.700203,-77988.521696
269.736261,9178.553681,3108.864956,-78294.959896
269.738868,15988.448347,-5181.441594,-79061.055394
269.741474,1332.370696,-148.041188,-76915.987999
269.744081,-8438.347739,-296.082377,-77528.864398
269.746687,-3552.988522,1628.453072,-78601.398095
269.749294,2220.617826,-4589.276840,-77528.864398
269.751901,2220.617826,4737.318029,-75537.016103
269.754507,13471.748144,-2220.617826,-79061.055394
269.757114,2368.659014,-4145.153275,-79214.274493
269.759721,-3701.029710,2220.617826,-77375.645298
269.762328,-444.123565,444.123565,-77682.083497
269.764935,444.123565,-1776.494261,-77682.083497
269.767542,1628.453072,-1776.494261,-76609.549800
269.770148,2812.782580,-444.123565,-76609.549800
269.772755,8586.388927,-2812.782580,-78448.178995
269.775362,-888.247130,-1776.494261,-79673.931792
269.777969,10510.924376,1480.411884,-78754.617194
269.780576,9770.718434,-4293.194464,-76149.892501
269.783182,3552.988522,0.000000,-76303.111601
269.785789,2220.617826,-740.205942,-78448.178995
269.788396,2960.823768,-2812.782580,-78294.959896
269.791003,592.164754,-1924.535449,-80286.808190
269.793610,2516.700203,4145.153275,-78448.178995
269.796217,8882.471304,-2664.741391,-78601.398095
269.798823,1332.370696,-740.205942,-75690.235202
269.801430,-3108.864956,-1332.370696,-77835.302597
269.804037,11547.212695,-2368.659014,-78448.178995
269.806644,-2516.700203,-2072.576638,-79214.274493
269.809251,-10807.006753,5329.482782,-77069.207099
269.811857,-6069.688724,-6069.688724,-77375.645298
269.814464,740.205942,-3404.947333,-77222.426198
269.817071,-3404.947333,0.000000,-76456.330700
269.819678,10214.842000,1184.329507,-79980.369991
269.822285,1776.494261,-3849.070898,-78907.836294
269.824892,-13619.789333,2368.659014,-75996.673402
269.827498,-9178.553681,-1332.370696,-75843.454302
269.830105,-6957.935855,-3404.947333,-77528.864398
269.832712,-3997.112087,1924.535449,-77375.645298
269.835319,4441.235652,2960.823768,-78448.178995
269.837926,8586.388927,-6365.771101,-78448.178995
269.840532,-6513.812290,0.000000,-76609.549800
269.843139,-13471.748144,1184.329507,-78294.959896
269.845746,-4737.318029,-3849.070898,-78754.617194
269.848353,-3404.947333,888.247130,-74617.701505
269.850960,296.082377,592.164754,-78754.617194
269.853567,4885.359217,-3108.864956,-79214.274493
269.856085,-5921.647536,-2368.659014,-77222.426198
269.858603,-12287.418637,3404.947333,-77682.083497
269.861121,10214.842000,-148.041188,-79367.493593
269.863639,1776.494261,-4441.235652,-79214.274493
269.866157,-5773.606348,1628.453072,-77528.864398
269.868675,-6217.729913,-1184.329507,-77682.083497
269.871193,-11547.212695,-3849.070898,-78448.178995
269.873711,-12287.418637,2812.782580,-76609.549800
269.876229,6513.812290,-3256.906145,-79214.274493
269.878747,444.123565,-3997.112087,-79367.493593
269.881265,-6513.812290,-296.082377,-76149.892501
269.883783,-8438.347739,148.041188,-77222.426198
269.886301,-3849.070898,-3849.070898,-76762.768900
269.888820,-8142.265362,2220.617826,-76609.549800
269.891338,4441.235652,1628.453072,-78141.740796
269.893856,7254.018232,-5329.482782,-79214.274493
269.896374,-7698.141797,888.247130,-76303.111601
269.898892,-444.123565,-444.123565,-77835.302597
269.901410,8586.388927,-2812.782580,-78754.617194
269.903928,5033.400406,-1036.288319,-79214.274493
269.906446,5625.565159,1332.370696,-77988.521696
269.908964,9326.594869,-4145.153275,-79061.055394
269.911482,-6217.729913,-1924.535449,-76609.549800
269.914000,-4737.318029,3997.112087,-77375.645298
269.916518,7254.018232,-5329.482782,-79214.274493
269.919036,5033.400406,-444.123565,-77375.645298
269.921554,8142.265362,2072.576638,-76456.330700
269.924072,5921.647536,1332.370696,-77222.426198
269.926591,148.041188,-5477.523971,-78601.398095
269.929109,-14211.954086,3849.070898,-76149.892501
269.931627,10955.047942,-1332.370696,-78294.959896
269.934145,7698.141797,-2812.782580,-77375.645298
269.936663,4293.194464,888.247130,-79214.274493
269.939181,740.205942,-1628.453072,-78448.178995
269.941699,1480.411884,-2072.576638,-75843.454302
269.944217,-6365.771101,888.247130,-77528.864398
269.946735,2368.659014,2220.617826,-75690.235202
269.949253,7846.182985,-4441.235652,-78141.740796
269.951771,-1332.370696,148.041188,-77682.083497
269.954289,2812.782580,0.000000,-79214.274493
269.956830,13323.706956,-2072.576638,-76456.330700
269.959371,888.247130,-888.247130,-77528.864398
269.961912,5625.565159,1628.453072,-77835.302597
269.964452,6069.688724,-4441.235652,-80286.808190
269.966993,-2960.823768,148.041188,-76303.111601
269.969534,-3404.947333,3701.029710,-77528.864398
269.972075,10066.800811,-1036.288319,-78754.617194
269.974616,740.205942,-3552.988522,-76915.987999
269.977156,-1480.411884,2960.823768,-77682.083497
269.979697,9030.512492,-4441.235652,-79673.931792
269.982238,6069.688724,-3404.947333,-77682.083497
269.984779,-5921.647536,5181.441594,-77528.864398
269.987320,-6217.729913,-2220.617826,-79827.150892
269.989860,-15840.407159,-5477.523971,-77528.864398
269.992401,-4589.276840,444.123565,-74617.701505
269.994942,5921.647536,148.041188,-78754.617194
269.997483,8290.306550,-1924.535449,-79367.493593
270.000023,-7254.018232,0.000000,-77375.645298
270.002564,-9622.677246,1480.411884,-76303.111601
270.005105,-12435.459826,-4589.276840,-77375.645298
270.007646,-11991.336260,2072.576638,-77375.645298
270.010187,6957.935855,-1332.370696,-79980.369991
270.012727,8290.306550,-1480.411884,-78294.959896
270.015268,-7698.141797,-3108.864956,-77069.207099
270.017809,-1776.494261,1776.494261,-75843.454302
270.020350,-4737.318029,-7105.977043,-79520.712692
270.022891,-6513.812290,1036.288319,-78601.398095
270.025431,888.247130,3701.029710,-76915.987999
270.027972,6365.771101,-6217.729913,-76149.892501
270.030513,-592.164754,-2516.700203,-76149.892501
270.033054,-10658.965565,444.123565,-76149.892501
270.035595,-2220.617826,1480.411884,-75690.235202
270.038152,2516.700203,-3701.029710,-77682.083497
270.040709,-6809.894666,-1036.288319,-77069.207099
270.043267,-10807.006753,1924.535449,-79061.055394
270.045824,-5625.565159,-2220.617826,-77069.207099
270.048381,-10658.965565,-592.164754,-75230.577904
270.050939,-3404.947333,2220.617826,-77069.207099
270.053496,4589.276840,-5033.400406,-80133.589091
270.056054,-5625.565159,-148.041188,-78448.178995
270.058611,-12435.459826,3404.947333,-76915.987999
270.061168,-2072.576638,-2516.700203,-79061.055394
270.063726,-1776.494261,-5181.441594,-79061.055394
270.066283,-296.082377,4441.235652,-75843.454302
270.068841,2368.659014,-2664.741391,-79367.493593
270.071398,-2812.782580,-2812.782580,-77988.521696
270.073955,1184.329507,592.164754,-77069.207099
270.076513,13175.665768,-2072.576638,-79061.055394
270.079070,10362.883188,-3256.906145,-79673.931792
270.081628,-2516.700203,0.000000,-76762.768900
270.084185,-888.247130,592.164754,-76149.892501
270.086742,444.123565,-5181.441594,-77682.083497
270.089300,-3108.864956,1036.288319,-77528.864398
270.091857,10510.924376,-444.123565,-77222.426198
270.094414,13027.624579,-3256.906145,-79214.274493
270.096972,444.123565,148.041188,-77069.207099
270.099529,-3404.947333,-740.205942,-76149.892501
270.102087,-444.123565,-2220.617826,-79367.493593
270.104644,296.082377,-2072.576638,-77375.645298
270.107201,5033.400406,3404.947333,-76456.330700
270.109759,13027.624579,-2516.700203,-78601.398095
270.112316,-2220.617826,-3256.906145,-80286.808190
270.114874,-6069.688724,2220.617826,-75537.016103
270.117431,2960.823768,-4145.153275,-76303.111601
270.119988,4737.318029,-2664.741391,-77069.207099
270.122546,-1332.370696,4145.153275,-76609.549800
270.125103,10066.800811,-1036.288319,-75077.358804
270.127661,9178.553681,-4145.153275,-78907.836294
270.130218,2368.659014,2664.741391,-79673.931792
270.132775,10362.883188,0.000000,-76762.768900
270.135333,6809.894666,-6513.812290,-79061.055394
270.137890,-2368.659014,2664.741391,-74770.920605
270.140387,5773.606348,-1332.370696,-78601.398095
270.142883,4589.276840,-3404.947333,-78754.617194
270.145380,-4145.153275,-444.123565,-79673.931792
270.147877,2664.741391,2812.782580,-77069.207099
270.150373,7550.100608,-6809.894666,-77835.302597
270.152870,4885.359217,-148.041188,-76915.987999
270.155367,1184.329507,1628.453072,-78294.959896
270.157863,-8438.347739,-2368.659014,-78601.398095
270.160360,-17912.983796,-1776.494261,-76303.111601
270.162856,-5625.565159,-296.082377,-76762.768900
270.165353,5329.482782,-3552.988522,-77682.083497
270.167850,8438.347739,-1332.370696,-78754.617194
270.170346,-1776.494261,2072.576638,-78294.959896
270.172843,-5033.400406,-1628.453072,-77682.083497
270.175340,-15840.407159,-2960.823768,-77528.864398
270.177836,-15396.283594,1480.411884,-76149.892501
270.180333,7105.977043,-888.247130,-78448.178995
270.182830,4589.276840,-2960.823768,-78601.398095
270.185326,148.041188,3108.864956,-77375.645298
270.187823,7105.977043,-5477.523971,-77069.207099
270.190319,-6957.935855,-2220.617826,-77988.521696
270.192816,-11103.089130,444.123565,-76303.111601
270.195313,3997.112087,1184.329507,-79980.369991
270.197809,9030.512492,-3997.112087,-79827.150892
270.200306,-3552.988522,0.000000,-76762.768900
270.202803,-1628.453072,148.041188,-75843.454302
270.205299,740.205942,-3552.988522,-78601.398095
270.207796,-7846.182985,1776.494261,-80133.589091
270.210293,-3256.906145,2664.741391,-79061.055394
270.212789,-3552.988522,-4737.318029,-80746.465489
270.215286,-10066.800811,-2220.617826,-76303.111601
270.217782,-8882.471304,4589.276840,-74464.482406
270.220279,592.164754,-5625.565159,-77528.864398
270.222776,-4589.276840,-444.123565,-79673.931792
270.225272,-1628.453072,1332.370696,-78754.617194
270.227769,-1924.535449,-2220.617826,-76456.330700
270.230266,-5773.606348,-1628.453072,-76149.892501
270.232762,-2516.700203,888.247130,-77069.207099
270.235259,2072.576638,592.164754,-77835.302597
270.237755,-2960.823768,-3256.906145,-77682.083497
270.240279,-4885.359217,444.123565,-78754.617194
270.242803,13471.748144,-1036.288319,-77682.083497
270.245327,12435.459826,-3256.906145,-77375.645298
270.247851,740.205942,1184.329507,-76762.768900
270.250375,4737.318029,-740.205942,-78754.617194
270.252898,-2072.576638,-4145.153275,-78141.740796
270.255422,-4441.235652,1924.535449,-77222.426198
270.257946,5477.523971,-888.247130,-78294.959896
270.260470,14359.995275,-3552.988522,-78601.398095
270.262994,5329.482782,-740.205942,-77528.864398
270.265517,592.164754,2664.741391,-76303.111601
270.268041,740.205942,-5773.606348,-77835.302597
270.270565,-444.123565,1184.329507,-77069.207099
270.273089,5033.400406,740.205942,-79061.055394
270.275613,16876.695478,-3108.864956,-78754.617194
270.278136,2812.782580,-4737.318029,-79827.150892
270.280660,-7254.018232,1480.411884,-77835.302597
270.283184,3997.112087,-1480.411884,-77682.083497
270.285708,6661.853478,-4885.359217,-77375.645298
270.288232,-6809.894666,5921.647536,-77682.083497
270.290755,9326.594869,-4589.276840,-78907.836294
270.293279,5773.606348,-3256.906145,-76915.987999
270.295803,5625.565159,3404.947333,-75383.797003
270.298327,11695.253884,-2368.659014,-79214.274493
270.300851,6809.894666,-5921.647536,-79367.493593
270.303374,444.123565,888.247130,-77222.426198
270.305898,3701.029710,-148.041188,-77528.864398
270.308422,5625.565159,-2516.700203,-77375.645298
270.310946,-6069.688724,148.041188,-76762.768900
270.313470,5625.565159,444.123565,-78448.178995
270.315993,9030.512492,-3997.112087,-76762.768900
270.318517,4441.235652,2368.659014,-77069.207099
270.321041,-6513.812290,1924.535449,-78754.617194
270.323565,-9474.636058,-2072.576638,-77988.521696
270.326089,-15988.448347,-2072.576638,-77222.426198
270.328612,-3256.906145,3552.988522,-75843.454302
270.331136,7550.100608,-5033.400406,-79061.055394
270.333660,3108.864956,0.000000,-77375.645298
270.336184,-1036.288319,1184.329507,-78294.959896
270.338708,-7105.977043,-2220.617826,-77222.426198
270.341253,-19541.436869,-1184.329507,-76609.549800
270.343798,-12139.377449,1332.370696,-77375.645298
270.346343,8882.471304,-888.247130,-78294.959896
270.348888,7994.224174,-1184.329507,-76609.549800
270.351433,3404.947333,-148.041188,-75996.673402
270.353978,-1776.494261,-1480.411884,-79214.274493
270.356524,-12879.583391,-4145.153275,-79061.055394
270.359069,-2072.576638,4293.194464,-76609.549800
270.361614,5921.647536,-4145.153275,-79061.055394
270.364159,3108.864956,148.041188,-77835.302597
270.366704,6513.812290,-740.205942,-74770.920605
270.369249,-12287.418637,-1924.535449,-79061.055394
270.371794,3552.988522,888.247130,-75230.577904
270.374339,-13027.624579,-1332.370696,-77835.302597
270.376885,-4293.194464,1776.494261,-77222.426198
270.379430,-3552.988522,-7994.224174,-78294.959896
270.381975,-7994.224174,2812.782580,-74770.920605
270.384520,-6809.894666,0.000000,-78294.959896
270.387065,296.082377,-2812.782580,-78294.959896
270.389610,-4885.359217,-1924.535449,-78294.959896
270.392155,-6661.853478,1628.453072,-76915.987999
270.394700,3701.029710,-1480.411884,-77835.302597
270.397246,-2220.617826,-4441.235652,-78294.959896
270.399791,-6365.771101,2516.700203,-77222.426198
270.402336,-2220.617826,-1776.494261,-79061.055394
270.404881,-1036.288319,-2960.823768,-76762.768900
270.407426,7846.182985,1776.494261,-77988.521696
270.409971,13471.748144,-740.205942,-78141.740796
270.412516,7402.059420,-4441.235652,-78448.178995
270.415061,-7402.059420,1184.329507,-76456.330700
270.417606,-2516.700203,-296.082377,-77528.864398
270.420152,2368.659014,-3256.906145,-77988.521696
270.422697,1924.535449,-296.082377,-77069.207099
270.425242,15692.365970,1036.288319,-78448.178995
270.427787,10807.006753,-3849.070898,-78754.617194
270.430332,-4441.235652,1628.453072,-76456.330700
270.432877,0.000000,444.123565,-78141.740796
270.435422,4441.235652,-2516.700203,-79061.055394
270.437967,1332.370696,-1776.494261,-78294.959896
270.440513,6957.935855,2072.576638,-75230.577904
270.443072,7254.018232,-6661.853478,-78448.178995
270.445632,4441.235652,-3701.029710,-76915.987999
270.448191,-11991.336260,2368.659014,-75230.577904
270.450751,12583.501014,-1628.453072,-79214.274493
270.453311,6957.935855,-1776.494261,-79214.274493
270.455870,3997.112087,1332.370696,-78141.740796
270.458430,8142.265362,2220.617826,-77988.521696
270.460990,10066.800811,-3849.070898,-79827.150892
270.463549,-3552.988522,-296.082377,-76915.987999
270.466109,1776.494261,1332.370696,-76149.892501
270.468668,7550.100608,-4589.276840,-77835.302597
270.471228,-1332.370696,888.247130,-77069.207099
270.473788,0.000000,1480.411884,-78294.959896
270.476347,6661.853478,-3849.070898,-77835.302597
270.478907,2664.741391,-5181.441594,-78294.959896
270.481467,-888.247130,4885.359217,-76456.330700
270.484026,-3108.864956,-1924.535449,-78601.398095
270.486586,-15396.283594,-3997.112087,-78141.740796
270.489145,-14359.995275,592.164754,-76915.987999
270.491705,7550.100608,-888.247130,-77682.083497
270.494265,5773.606348,-2072.576638,-78294.959896
270.496824,2368.659014,3404.947333,-78907.836294
270.499384,444.123565,-4293.194464,-79827.150892
270.501944,-11399.171507,-3552.988522,-76456.330700
270.504503,-20281.642811,1036.288319,-77222.426198
270.507063,-1480.411884,-148.041188,-78601.398095
270.509622,10807.006753,-2220.617826,-77835.302597
270.512182,5773.606348,1924.535449,-76762.768900
270.514742,-4293.194464,-444.123565,-76609.549800
270.517301,-3256.906145,-4441.235652,-77835.302597
270.519861,-16580.613101,2072.576638,-74464.482406
270.522421,888.247130,0.000000,-79367.493593
270.524980,8142.265362,-4441.235652,-78601.398095
270.527540,-592.164754,-2664.741391,-76303.111601
270.530099,-7402.059420,1480.411884,-78601.398095
270.532659,-5773.606348,-3701.029710,-79061.055394
270.535219,-7994.224174,592.164754,-77069.207099
270.537778,-11399.171507,2072.576638,-75996.673402
270.540338,-296.082377,-5181.441594,-81665.780087
270.542898,-8882.471304,-1924.535449,-76456.330700
270.545468,-9622.677246,2664.741391,-75843.454302
270.548039,-1628.453072,-444.123565,-80133.589091
270.550610,592.164754,-1924.535449,-77988.521696
270.553181,-8734.430116,-740.205942,-76609.549800
270.555752,4885.359217,740.205942,-75843.454302
270.558323,148.041188,-4145.153275,-79827.150892
270.560893,-9622.677246,1924.535449,-76609.549800
270.563464,-740.205942,-740.205942,-77069.207099
270.566035,4293.194464,-3108.864956,-76149.892501
270.568606,8734.430116,-1184.329507,-78294.959896
270.571177,12583.501014,2812.782580,-77528.864398
270.573748,8290.306550,-6069.688724,-78141.740796
270.576319,-7846.182985,296.082377,-77069.207099
270.578889,-5033.400406,2516.700203,-76762.768900
270.581460,3552.988522,-4589.276840,-78907.836294
270.584031,5033.400406,-2960.823768,-77222.426198
270.586602,13767.830521,3404.947333,-77222.426198
270.589173,10955.047942,-4589.276840,-78601.398095
270.591744,-8438.347739,-3701.029710,-78907.836294
270.594314,-3997.112087,888.247130,-77222.426198
270.596885,6957.935855,-888.247130,-77988.521696
270.599456,10658.965565,-1776.494261,-78601.398095
270.602027,0.000000,1776.494261,-79673.931792
270.604598,10510.924376,-3701.029710,-77069.207099
270.607169,1184.329507,-4589.276840,-76149.892501
270.609739,-10066.800811,4145.153275,-77988.521696
270.612310,4145.153275,-2664.741391,-77988.521696
270.614881,13175.665768,-3404.947333,-78907.836294
270.617452,4145.153275,444.123565,-77375.645298
270.620023,11991.336260,1480.411884,-76303.111601
270.622594,3256.906145,-4885.359217,-78754.617194
270.625164,-740.205942,2072.576638,-77222.426198
270.627735,740.205942,-1480.411884,-78294.959896
270.630306,7994.224174,-2960.823768,-77222.426198
270.632877,-5033.400406,-740.205942,-76456.330700
270.635448,-1332.370696,2368.659014,-77069.207099
270.638019,12139.377449,-4885.359217,-78294.959896
270.640589,4145.153275,-1628.453072,-78754.617194
270.643160,-9326.594869,4441.235652,-78448.178995
270.645731,-9622.677246,-4589.276840,-77682.083497
270.648244,-15100.201217,-3849.070898,-76609.549800
270.650763,-4145.153275,2812.782580,-76609.549800
270.653283,9326.594869,-1332.370696,-79367.493593
270.655803,2220.617826,-1036.288319,-79367.493593
270.658323,-9178.553681,0.000000,-77069.207099
270.660842,-8734.430116,444.123565,-75537.016103
270.663362,-13175.665768,-2812.782580,-76915.987999
270.665882,-11103.089130,-148.041188,-78294.959896
270.668401,7698.141797,1332.370696,-79673.931792
270.670921,1924.535449,-3108.864956,-78754.617194
270.673441,-740.205942,444.123565,-75077.358804
270.675961,-6809.894666,148.041188,-76609.549800
270.678480,-3997.112087,-3849.070898,-79520.712692
270.681000,-888.247130,-2368.659014,-77988.521696
270.683520,-4293.194464,3404.947333,-77988.521696
270.686040,8586.388927,-2960.823768,-77528.864398
270.688559,-12879.583391,-1332.370696,-77222.426198
270.691079,-6217.729913,-1184.329507,-75077.358804
270.693599,-6217.729913,-592.164754,-77222.426198
270.696119,-10658.965565,-740.205942,-79827.150892
270.698638,-6661.853478,3701.029710,-78294.959896
270.701158,888.247130,-6513.812290,-77988.521696
270.703678,-6217.729913,-3552.988522,-79061.055394
270.706197,-10066.800811,3404.947333,-77375.645298
270.708717,-1776.494261,-1776.494261,-78448.178995
270.711237,888.247130,-1924.535449,-77682.083497
270.713757,-5329.482782,2072.576638,-78448.178995
270.716276,6217.729913,-296.082377,-78907.836294
270.718796,-8882.471304,-4145.153275,-78448.178995
270.721316,-5329.482782,2664.741391,-76456.330700
270.723836,11103.089130,-1924.535449,-78141.740796
270.726355,14952.160028,-2072.576638,-79367.493593
270.728875,5773.606348,-1480.411884,-77835.302597
270.731395,740.205942,1628.453072,-76609.549800
270.733915,2368.659014,-5625.565159,-77222.426198
270.736434,-9326.594869,3701.029710,-76915.987999
270.738954,6069.688724,-2072.576638,-78907.836294
270.741474,14508.036463,-2516.700203,-77988.521696
270.743994,7254.018232,-444.123565,-76149.892501
270.746513,3108.864956,3849.070898,-77528.864398
270.749053,-3552.988522,-3552.988522,-80286.808190
270.751593,296.082377,-2516.700203,-78294.959896
270.754133,-7402.059420,3997.112087,-76303.111601
270.756673,13027.624579,-3108.864956,-78448.178995
270.759213,3404.947333,-2960.823768,-78907.836294
270.761753,-6365.771101,1776.494261,-79061.055394
270.764293,4885.359217,-2368.659014,-78754.617194
270.766833,-2960.823768,-1776.494261,-77835.302597
270.769373,1036.288319,1776.494261,-76609.549800
270.771913,15840.407159,-1480.411884,-79367.493593
270.774453,12879.583391,-5477.523971,-77988.521696
270.776993,2072.576638,2960.823768,-75537.016103
270.779533,2812.782580,0.000000,-78294.959896
270.782073,3997.112087,-3256.906145,-78907.836294
270.784612,-4737.318029,888.247130,-77682.083497
270.787152,6365.771101,592.164754,-76915.987999
270.789692,9030.512492,-5625.565159,-79061.055394
270.792232,8882.471304,-1776.494261,-76762.768900
270.794772,2072.576638,3404.947333,-78294.959896
270.797312,-5921.647536,-1628.453072,-78754.617194
270.799852,-22502.260637,-1184.329507,-77682.083497
270.802392,-8290.306550,0.000000,-77528.864398
270.804932,7846.182985,-2516.700203,-77069.207099
270.807472,5181.441594,148.041188,-77222.426198
270.810012,5477.523971,3701.029710,-78601.398095
270.812552,-2812.782580,-2812.782580,-78754.617194
270.815092,-17764.942608,-2960.823768,-75230.577904
270.817632,-19985.560434,2220.617826,-77069.207099
270.820172,2960.823768,-1776.494261,-78294.959896
270.822712,2516.700203,-2812.782580,-78601.398095
270.825252,7402.059420,148.041188,-75690.235202
270.827792,5181.441594,-592.164754,-77222.426198
270.830332,-13027.624579,-3849.070898,-78907.836294
270.832872,-9770.718434,2368.659014,-77988.521696
270.835411,-3849.070898,-740.205942,-81206.122788
270.837951,5477.523971,888.247130,-77682.083497
270.840491,-7550.100608,-4145.153275,-77069.207099
270.843031,-5181.441594,888.247130,-73698.386908
270.845571,-5181.441594,-2664.741391,-77375.645298
270.848111,-14952.160028,-1332.370696,-79367.493593
270.850667,-6809.894666,2960.823768,-77988.521696
270.853223,1184.329507,-5181.441594,-77069.207099
270.855779,-7846.182985,-592.164754,-74770.920605
270.858335,-12287.418637,1924.535449,-76303.111601
270.860891,-4589.276840,1628.453072,-77528.864398
270.863447,2960.823768,-3256.906145,-77988.521696
270.866003,148.041188,-1036.288319,-75537.016103
270.868559,-2220.617826,1480.411884,-79367.493593
270.871115,-1184.329507,-3108.864956,-79214.274493
270.873671,-4441.235652,-444.123565,-76762.768900
270.876227,11399.171507,444.123565,-76762.768900
270.878783,16580.613101,-2664.741391,-78294.959896
270.881339,3256.906145,-4589.276840,-78907.836294
270.883896,-2812.782580,3256.906145,-75690.235202
270.886452,2812.782580,-2664.741391,-78754.617194
270.889008,-3849.070898,-148.041188,-76762.768900
270.891564,2960.823768,1776.494261,-78448.178995
270.894120,18061.024985,-2812.782580,-79214.274493
270.896676,4885.359217,-2368.659014,-77222.426198
270.899232,3849.070898,2220.617826,-76915.987999
270.901788,-592.164754,-3256.906145,-77682.083497
270.904344,7402.059420,-3552.988522,-78448.178995
270.906900,-3256.906145,1184.329507,-77069.207099
270.909456,1480.411884,3552.988522,-78448.178995
270.912012,3849.070898,-5181.441594,-78907.836294
270.914568,-8586.388927,-1480.411884,-77835.302597
270.917124,-2368.659014,1924.535449,-75843.454302
270.919680,7846.182985,-3997.112087,-79520.712692
270.922236,5181.441594,3849.070898,-77528.864398
270.924792,8290.306550,888.247130,-75996.673402
270.927348,12287.418637,-5181.441594,-78294.959896
270.929904,0.000000,-1480.411884,-78754.617194
270.932460,-148.041188,2368.659014,-79214.274493
270.935016,2664.741391,-3997.112087,-79673.931792
270.937572,148.041188,296.082377,-76762.768900
270.940128,1480.411884,1628.453072,-76149.892501
270.942684,13323.706956,-5773.606348,-79214.274493
270.945240,6513.812290,-1480.411884,-77375.645298
270.947796,-17024.736666,4293.194464,-77069.207099
270.950352,-13471.748144,-1184.329507,-77682.083497
270.952919,-8734.430116,-6513.812290,-77835.302597
270.955486,-1776.494261,2072.576638,-77222.426198
270.958054,12879.583391,888.247130,-77988.521696
270.960621,9622.677246,-2812.782580,-79061.055394
270.963188,-11695.253884,444.123565,-77222.426198
270.965755,-9326.594869,0.000000,-76456.330700
270.968322,-17320.819043,-4589.276840,-78294.959896
270.970889,-3256.906145,-888.247130,-78294.959896
270.973457,5329.482782,2812.782580,-79520.712692
270.976024,9474.636058,-3256.906145,-78448.178995
270.978591,-3256.906145,-2220.617826,-75537.016103
270.981158,-11843.295072,2812.782580,-74617.701505
270.983725,-2516.700203,-5033.400406,-81512.560987
270.986293,-1776.494261,1628.453072,-77988.521696
270.988860,-3701.029710,2368.659014,-77375.645298
270.991427,11103.089130,-3997.112087,-78294.959896
270.993994,-3256.906145,-6661.853478,-78448.178995
270.996561,-15100.201217,3404.947333,-74617.701505
270.999128,-8734.430116,-148.041188,-79061.055394
271.001696,-5329.482782,-2072.576638,-79061.055394
271.004263,-8290.306550,-148.041188,-77988.521696
271.006830,4885.359217,-1036.288319,-77222.426198
271.009397,-6513.812290,-3701.029710,-77835.302597
271.011964,-10807.006753,2664.741391,-76456.330700
271.014531,444.123565,1036.288319,-77835.302597
271.017099,3997.112087,-1776.494261,-79061.055394
271.019666,-10658.965565,888.247130,-77069.207099
271.022233,-1036.288319,-1480.411884,-76915.987999
271.024800,9622.677246,-4293.194464,-77835.302597
271.027367,7550.100608,148.041188,-76762.768900
271.029935,10807.006753,1332.370696,-77682.083497
271.032502,7846.182985,-4737.318029,-78601.398095
271.035069,-5477.523971,-2368.659014,-76456.330700
271.037636,-5625.565159,3108.864956,-75996.673402
271.040203,5625.565159,-1628.453072,-78907.836294
271.042770,8882.471304,-2220.617826,-78294.959896
271.045338,8438.347739,1776.494261,-77835.302597
271.047905,4145.153275,-3256.906145,-77988.521696
271.050472,1036.288319,-2516.700203,-76609.549800
271.053039,-4589.276840,592.164754,-76915.987999
271.055615,10362.883188,-2072.576638,-79980.369991
271.058191,0.000000,-3404.947333,-79061.055394
271.060767,-5477.523971,2072.576638,-77835.302597
271.063342,-2368.659014,-444.123565,-79061.055394
271.065918,1184.329507,-5625.565159,-76303.111601
271.068494,592.164754,1332.370696,-76303.111601
271.071070,8290.306550,3552.988522,-77682.083497
271.073646,14063.912898,-3404.947333,-82278.656485
271.076222,7846.182985,148.041188,-76456.330700
271.078798,10362.883188,-444.123565,-74924.139704
271.081373,4737.318029,-3701.029710,-80593.246390
271.083949,-6809.894666,-592.164754,-77682.083497
271.086525,0.000000,2516.700203,-77222.426198
271.089101,9178.553681,-3552.988522,-78601.398095
271.091677,7550.100608,-2960.823768,-78907.836294
271.094253,8290.306550,2812.782580,-76762.768900
271.096828,-3404.947333,-2960.823768,-78601.398095
271.099404,-21614.013506,-740.205942,-76303.111601
271.101980,-15396.283594,296.082377,-77375.645298
271.104556,6217.729913,148.041188,-78907.836294
271.107132,11547.212695,-2664.741391,-78601.398095
271.109708,1776.494261,3256.906145,-77682.083497
271.112283,-2664.741391,-2664.741391,-77682.083497
271.114859,-15988.448347,-1480.411884,-76609.549800
271.117435,-23390.507767,-592.164754,-77375.645298
271.120011,1480.411884,444.123565,-78141.740796
271.122587,9326.594869,-1776.494261,-79673.931792
271.125163,1332.370696,1184.329507,-77682.083497
271.127739,-2072.576638,-444.123565,-77375.645298
271.130314,-7698.141797,-2664.741391,-76609.549800
271.132890,-5773.606348,-2072.576638,-77682.083497
271.135466,-10066.800811,2516.700203,-76609.549800
271.138042,14211.954086,-2812.782580,-77222.426198
271.140618,-5625.565159,-6957.935855,-79214.274493
271.143194,-6513.812290,6069.688724,-74464.482406
271.145769,-9918.759623,-5033.400406,-78907.836294
271.148345,-15396.283594,888.247130,-76915.987999
271.150921,-9622.677246,3108.864956,-77528.864398
271.153497,4589.276840,-1776.494261,-77682.083497
271.156073,296.082377,-3701.029710,-77682.083497
271.158654,-10362.883188,3108.864956,-76456.330700
271.161235,2220.617826,-1776.494261,-77682.083497
271.163816,592.164754,-2812.782580,-78294.959896
271.166397,-9474.636058,740.205942,-78141.740796
271.168978,-2220.617826,444.123565,-79214.274493
271.171559,3701.029710,-5181.441594,-78141.740796
271.174140,7994.224174,740.205942,-76609.549800
271.176721,11843.295072,0.000000,-75537.016103
271.179302,7254.018232,-4145.153275,-78601.398095
271.181883,-5773.606348,-888.247130,-78141.740796
271.184464,-3256.906145,1628.453072,-77222.426198
271.187045,5033.400406,-2812.782580,-75996.673402
271.189626,2812.782580,1036.288319,-77835.302597
271.192207,14063.912898,-888.247130,-78294.959896
271.194788,6957.935855,-1924.535449,-77528.864398
271.197369,2220.617826,-2812.782580,-76149.892501
271.199950,-3997.112087,1776.494261,-78141.740796
271.202531,8586.388927,-3552.988522,-81512.560987
271.205112,148.041188,-1332.370696,-77835.302597
271.207693,-888.247130,4589.276840,-75383.797003
271.210274,3108.864956,-4737.318029,-78141.740796
271.212855,-4145.153275,-3701.029710,-79061.055394
271.215436,2812.782580,3849.070898,-77222.426198
271.218017,6809.894666,0.000000,-78141.740796
271.220598,16876.695478,-2812.782580,-77222.426198
271.223179,4737.318029,296.082377,-77682.083497
271.225760,9178.553681,0.000000,-77375.645298
271.228341,0.000000,-3701.029710,-77682.083497
271.230922,-6513.812290,1332.370696,-76609.549800
271.233503,1924.535449,-296.082377,-79520.712692
271.236084,8142.265362,-2960.823768,-78294.959896
271.238665,5773.606348,148.041188,-76609.549800
271.241246,4737.318029,2072.576638,-78294.959896
271.243827,-11103.089130,-2664.741391,-78448.178995
271.246408,-21317.931130,-1480.411884,-76149.892501
271.248989,-12287.418637,444.123565,-76609.549800
271.251570,9178.553681,-3108.864956,-78294.959896
271.254151,6365.771101,-1776.494261,-77988.521696
271.256732,5033.400406,3552.988522,-78294.959896
271.259313,-2664.741391,-5921.647536,-78141.740796
271.261898,-18949.272115,-1480.411884,-76915.987999
271.264483,-15692.365970,1332.370696,-78754.617194
271.267067,6513.812290,-888.247130,-78141.740796
271.269652,9326.594869,-2220.617826,-78907.836294
271.272237,-2072.576638,-740.205942,-77222.426198
271.274822,-1036.288319,-148.041188,-76609.549800
271.277407,-4737.318029,-5329.482782,-75690.235202
271.279992,-6069.688724,740.205942,-77222.426198
271.282577,5773.606348,1480.411884,-78754.617194
271.285162,7254.018232,-2368.659014,-77835.302597
271.287747,-3701.029710,-3404.947333,-76609.549800
271.290331,-18209.066173,0.000000,-77375.645298
271.292916,-9474.636058,444.123565,-78294.959896
271.295501,-7994.224174,-5773.606348,-77682.083497
271.298086,-7105.977043,2812.782580,-77222.426198
271.300671,4145.153275,-1776.494261,-79367.493593
271.303256,-2664.741391,-2812.782580,-78141.740796
271.305841,-9030.512492,1184.329507,-77528.864398
271.308426,-740.205942,3404.947333,-77375.645298
271.311010,-3108.864956,-5181.441594,-78294.959896
271.313595,-8438.347739,1332.370696,-77069.207099
271.316180,3849.070898,444.123565,-78448.178995
271.318765,17912.983796,-3849.070898,-78754.617194
271.321350,7254.018232,-740.205942,-75996.673402
271.323935,5033.400406,740.205942,-77528.864398
271.326520,296.082377,-4293.194464,-78294.959896
271.329105,-8586.388927,-444.123565,-77069.207099
271.331690,-1776.494261,3997.112087,-77069.207099
271.334274,15544.324782,-2960.823768,-78907.836294
271.336859,12731.542202,-2516.700203,-78141.740796
271.339444,2664.741391,4145.153275,-78294.959896
271.342029,1184.329507,-4737.318029,-77988.521696
271.344617,-4441.235652,-2960.823768,-75996.673402
271.347206,1628.453072,2960.823768,-76915.987999
271.349794,9918.759623,-3849.070898,-81052.903688
271.352382,-1332.370696,-296.082377,-77375.645298
271.354971,-6957.935855,2072.576638,-75996.673402
271.357559,-3997.112087,-3256.906145,-79367.493593
271.360147,9622.677246,-3108.864956,-75383.797003
271.362736,3701.029710,740.205942,-75383.797003
271.365324,16728.654289,1184.329507,-79520.712692
271.367912,12731.542202,-2812.782580,-79980.369991
271.370501,1480.411884,1480.411884,-75537.016103
271.373089,-2812.782580,1184.329507,-75843.454302
271.375677,2368.659014,-2960.823768,-78754.617194
271.378266,-1332.370696,-1184.329507,-76456.330700
271.380854,11399.171507,148.041188,-77988.521696
271.383442,16284.530724,-1628.453072,-78601.398095
271.386031,-10214.842000,-740.205942,-79673.931792
271.388619,-19541.436869,1776.494261,-76609.549800
271.391208,-11103.089130,-6513.812290,-78141.740796
271.393796,-7698.141797,296.082377,-76762.768900
271.396384,5181.441594,2368.659014,-79980.369991
271.398973,13027.624579,-296.082377,-79980.369991
271.401561,-2072.576638,-5181.441594,-77375.645298
271.404149,-23094.425390,2368.659014,-74617.701505
271.406738,-16876.695478,-888.247130,-77682.083497
271.409326,-1332.370696,-2812.782580,-78754.617194
271.411914,-5181.441594,2072.576638,-77988.521696
271.414503,10510.924376,-740.205942,-78294.959896
271.417091,-5625.565159,-3108.864956,-76149.892501
271.419679,-10955.047942,296.082377,-77222.426198
271.422268,-7994.224174,1776.494261,-77988.521696
271.424856,10066.800811,-3404.947333,-79520.712692
271.427444,-7550.100608,-740.205942,-79061.055394
271.430033,-592.164754,1332.370696,-76456.330700
271.432621,-6513.812290,-4441.235652,-77375.645298
271.435209,-17024.736666,148.041188,-76149.892501
271.437798,-12583.501014,-444.123565,-79061.055394
271.440386,-1184.329507,-1776.494261,-78448.178995
271.442974,-4293.194464,-2220.617826,-76762.768900
271.445563,-3404.947333,2220.617826,-77528.864398
271.448152,3404.947333,-2220.617826,-77988.521696
271.450740,-1332.370696,-2516.700203,-77375.645298
271.453329,-12583.501014,2664.741391,-76609.549800
271.455918,-740.205942,0.000000,-79061.055394
271.458507,3849.070898,-5033.400406,-77835.302597
271.461096,10807.006753,2960.823768,-78141.740796
271.463685,18209.066173,-2368.659014,-78601.398095
271.466274,5329.482782,-2220.617826,-78448.178995
271.468863,-10214.842000,-296.082377,-77069.207099
271.471452,-3701.029710,1480.411884,-78294.959896
271.474041,3997.112087,-3552.988522,-78448.178995
271.476630,9326.594869,-444.123565,-76303.111601
271.479218,15100.201217,592.164754,-77835.302597
271.481807,16728.654289,-2516.700203,-77835.302597
271.484396,-7550.100608,148.041188,-76456.330700
271.486985,-6513.812290,-888.247130,-76762.768900
271.489574,5181.441594,-3256.906145,-80746.465489
271.492163,6513.812290,-1924.535449,-78448.178995
271.494752,-5329.482782,1184.329507,-75230.577904
271.497341,9770.718434,-2220.617826,-75690.235202
271.499930,-740.205942,-3256.906145,-80133.589091
271.502519,0.000000,2812.782580,-79520.712692
271.505108,13767.830521,-1332.370696,-77375.645298
271.507696,11695.253884,-3108.864956,-76762.768900
271.510285,8438.347739,2368.659014,-77682.083497
271.512874,888.247130,592.164754,-75537.016103
271.515463,-3108.864956,-4737.318029,-77835.302597
271.518052,-6513.812290,888.247130,-79520.712692
271.520641,7402.059420,-740.205942,-78754.617194
271.523230,17616.901420,-3256.906145,-78141.740796
271.525819,1628.453072,1480.411884,-76762.768900
271.528408,-12287.418637,2368.659014,-78601.398095
271.530997,-15988.448347,-5329.482782,-78601.398095
271.533586,-16876.695478,-2664.741391,-77222.426198
271.536174,3108.864956,3849.070898,-79061.055394
271.538763,14211.954086,-2368.659014,-79367.493593
271.541352,1184.329507,-2220.617826,-77835.302597
271.543941,-10362.883188,444.123565,-75843.454302
271.546530,-16580.613101,-3849.070898,-77069.207099
271.549119,-13323.706956,148.041188,-78294.959896
271.551708,5181.441594,2368.659014,-79061.055394
271.554298,12435.459826,-2368.659014,-79214.274493
271.556887,-1628.453072,-3108.864956,-75843.454302
271.559477,-9178.553681,1332.370696,-77222.426198
271.562066,-740.205942,444.123565,-77375.645298
271.564655,-444.123565,-3404.947333,-79980.369991
271.567245,-1332.370696,3256.906145,-76762.768900
271.569834,6661.853478,-148.041188,-78601.398095
271.572424,-7698.141797,-5773.606348,-77069.207099
271.575013,-17912.983796,3256.906145,-76149.892501
271.577602,-11103.089130,-2220.617826,-76762.768900
271.580192,-740.205942,-1332.370696,-77069.207099
271.582781,-5329.482782,-1628.453072,-78141.740796
271.585371,2664.741391,2960.823768,-76149.892501
271.587960,3108.864956,-5773.606348,-78907.836294
271.590550,-7994.224174,1924.535449,-77222.426198
271.593139,-8586.388927,-1332.370696,-77988.521696
271.595728,-4441.235652,0.000000,-77682.083497
271.598318,-592.164754,-3849.070898,-77682.083497
271.600907,15544.324782,3552.988522,-77988.521696
271.603497,20281.642811,-2664.741391,-79520.712692
271.606086,3256.906145,-5329.482782,-78141.740796
271.608675,-8290.306550,1776.494261,-76303.111601
271.611265,-3108.864956,-1332.370696,-77835.302597
271.613854,1184.329507,-888.247130,-78294.959896
271.616444,5329.482782,888.247130,-79673.931792
271.619033,16728.654289,-2960.823768,-78754.617194
271.621622,4737.318029,-3849.070898,-77069.207099
271.624212,-2812.782580,3404.947333,-75996.673402
271.626801,1036.288319,-296.082377,-76456.330700
271.629391,2516.700203,-3256.906145,-76762.768900
271.631980,888.247130,2072.576638,-78294.959896
271.634570,4589.276840,-1480.411884,-78907.836294
271.637159,-3108.864956,-2516.700203,-77375.645298
271.639748,-1036.288319,-2368.659014,-75690.235202
271.642338,5477.523971,2220.617826,-76456.330700
271.644927,15840.407159,-3108.864956,-80899.684589
271.647517,9030.512492,1332.370696,-77528.864398
271.650106,6957.935855,4293.194464,-78907.836294
271.652695,-888.247130,-3997.112087,-80286.808190
271.655236,-5329.482782,-1036.288319,-76609.549800
271.657779,-4293.194464,2072.576638,-77835.302597
271.660323,16136.489536,-4737.318029,-77988.521696
271.662867,11251.130318,-2516.700203,-78907.836294
271.665411,-4589.276840,4293.194464,-77682.083497
271.667954,-15100.201217,-3997.112087,-77835.302597
271.670498,-12435.459826,-5033.400406,-77375.645298
271.673042,-5181.441594,1776.494261,-77375.645298
271.675586,11399.171507,296.082377,-77682.083497
271.678130,12583.501014,-2664.741391,-78294.959896
271.680673,-6661.853478,-592.164754,-77682.083497
271.683217,-11251.130318,1924.535449,-75537.016103
271.685761,-18505.148550,-3849.070898,-76762.768900
271.688305,-15100.201217,3849.070898,-77682.083497
271.690849,10214.842000,-2664.741391,-80133.589091
271.693392,3849.070898,-4441.235652,-77528.864398
271.695936,-3552.988522,-1332.370696,-75230.577904
271.698480,-4885.359217,-740.205942,-76762.768900
271.701024,-1776.494261,1332.370696,-78754.617194
271.703568,8290.306550,-2220.617826,-78294.959896
271.706111,-5033.400406,3256.906145,-77988.521696
271.708655,-2516.700203,-4885.359217,-79061.055394
271.711199,-11103.089130,-2516.700203,-77222.426198
271.713743,-19837.519246,1184.329507,-76762.768900
271.716286,-7402.059420,3256.906145,-78448.178995
271.718830,1480.411884,-3404.947333,-77528.864398
271.721374,592.164754,-2072.576638,-76456.330700
271.723918,2072.576638,-148.041188,-77988.521696
271.726462,592.164754,-2516.700203,-78448.178995
271.729005,-16432.571912,-592.164754,-77682.083497
271.731549,-2960.823768,1184.329507,-77835.302597
271.734093,8290.306550,-3108.864956,-77682.083497
271.736637,11843.295072,-296.082377,-78141.740796
271.739181,9326.594869,1628.453072,-78141.740796
271.741724,9030.512492,-1776.494261,-78294.959896
271.744268,-6365.771101,-1628.453072,-78141.740796
271.746812,-11547.212695,3108.864956,-77528.864398
271.749356,5477.523971,-3108.864956,-79520.712692
271.751899,13027.624579,-1184.329507,-77682.083497
271.754443,6513.812290,1036.288319,-77069.207099
271.756997,12287.418637,-3256.906145,-77682.083497
271.759550,-888.247130,-1036.288319,-75996.673402
271.762104,-6069.688724,1036.288319,-75690.235202
271.764657,6069.688724,-740.205942,-78141.740796
271.767211,7254.018232,-2368.659014,-77835.302597
271.769764,-4885.359217,888.247130,-77835.302597
271.772318,-4885.359217,-1924.535449,-76149.892501
271.774872,10510.924376,-3404.947333,-75996.673402
271.777425,3701.029710,888.247130,-77988.521696
271.779979,17912.983796,2072.576638,-80593.246390
271.782532,12731.542202,-4589.276840,-79520.712692
271.785086,-2664.741391,-2220.617826,-78907.836294
271.787639,-6069.688724,2812.782580,-79367.493593
271.790193,148.041188,-2220.617826,-77528.864398
271.792746,2664.741391,-3256.906145,-77682.083497
271.795300,12287.418637,3849.070898,-78294.959896
271.797853,6513.812290,-4293.194464,-81206.122788
271.800407,-17764.942608,-2072.576638,-77222.426198
271.802960,-19245.354492,1628.453072,-75996.673402
271.805514,-4293.194464,-296.082377,-79214.274493
271.808067,5181.441594,-2368.659014,-77222.426198
271.810621,6365.771101,2516.700203,-77835.302597
271.813175,4145.153275,-296.082377,-78754.617194
271.815728,-9622.677246,-4441.235652,-77069.207099
271.818282,-25018.960840,1776.494261,-75690.235202
271.820835,-11695.253884,1184.329507,-77682.083497
271.823389,7254.018232,-2812.782580,-78141.740796
271.825942,-2220.617826,1480.411884,-78141.740796
271.828496,-296.082377,2812.782580,-75077.358804
271.831049,1480.411884,-5477.523971,-77375.645298
271.833603,-14359.995275,888.247130,-77988.521696
271.836156,1184.329507,4589.276840,-80593.246390
271.838710,444.123565,-7698.141797,-80899.684589
271.841263,-5033.400406,2664.741391,-73545.167808
271.843817,-15840.407159,-1332.370696,-78141.740796
271.846370,-8290.306550,-3552.988522,-77835.302597
271.848924,-16728.654289,-1776.494261,-77222.426198
271.851478,-8586.388927,5477.523971,-79061.055394
271.854031,7550.100608,-2664.741391,-80440.027290
271.856585,7698.141797,-4441.235652,-76609.549800
271.859146,-7846.182985,2220.617826,-75537.016103
271.861707,-8142.265362,-148.041188,-79214.274493
271.864269,-6957.935855,-3256.906145,-78907.836294
271.866830,-888.247130,3552.988522,-77375.645298
271.869392,21169.889941,-1628.453072,-78294.959896
271.871953,17616.901420,-1924.535449,-78448.178995
271.874515,444.123565,-2960.823768,-77069.207099
271.877076,-4885.359217,1924.535449,-76609.549800
271.879637,-4441.235652,-3256.906145,-78448.178995
271.882199,-4441.235652,592.164754,-78141.740796
271.884760,13175.665768,1036.288319,-78907.836294
271.887322,25907.207970,-4737.318029,-77375.645298
271.889883,1036.288319,-296.082377,-75843.454302
271.892445,-3849.070898,740.205942,-77835.302597
271.895006,-592.164754,-2516.700203,-81512.560987
271.897568,9030.512492,-592.164754,-78294.959896
271.900129,-2368.659014,1332.370696,-77682.083497
271.902690,13323.706956,-2960.823768,-76456.330700
271.905252,-888.247130,-5625.565159,-78448.178995
271.907813,1776.494261,1924.535449,-77988.521696
271.910375,14952.160028,296.082377,-78754.617194
271.912936,15100.201217,-3256.906145,-78141.740796
271.915498,5033.400406,3404.947333,-78907.836294
271.918059,888.247130,-1184.329507,-75077.358804
271.920620,-592.164754,-2812.782580,-77069.207099
271.923182,-5181.441594,1776.494261,-77528.864398
271.925743,11695.253884,-296.082377,-77988.521696
271.928305,15988.448347,-3108.864956,-77988.521696
271.930866,-11991.336260,1036.288319,-76609.549800
271.933428,-15988.448347,296.082377,-77069.207099
271.935989,-12583.501014,-7105.977043,-78294.959896
271.938550,-7254.018232,4145.153275,-76915.987999
271.941112,5477.523971,4145.153275,-78141.740796
271.943673,12879.583391,-4441.235652,-79061.055394
271.946235,-9030.512492,-3701.029710,-77375.645298
271.948796,-15840.407159,2368.659014,-75230.577904
271.951358,-9474.636058,-4145.153275,-78294.959896
271.953919,-2664.741391,148.041188,-78294.959896
271.956480,-2220.617826,3849.070898,-80440.027290
271.959042,14804.118840,-5329.482782,-78141.740796
271.961608,-3404.947333,-5033.400406,-78754.617194
271.964175,-11991.336260,2072.576638,-75843.454302
271.966742,3701.029710,444.123565,-79061.055394
271.969308,740.205942,-1628.453072,-79673.931792
271.971875,-7254.018232,2960.823768,-78448.178995
271.974442,-6069.688724,-1628.453072,-75996.673402
271.977008,-13027.624579,-5477.523971,-76149.892501
271.979575,-17912.983796,-592.164754,-76609.549800
271.982141,-3849.070898,3404.947333,-78754.617194
271.984708,7254.018232,-4293.194464,-80286.808190
271.987275,2516.700203,-1924.535449,-78294.959896
271.989841,-1036.288319,2812.782580,-76609.549800
271.992408,-7994.224174,-5477.523971,-77222.426198
271.994974,-13323.706956,-592.164754,-77222.426198
271.997541,2220.617826,2812.782580,-77988.521696
272.000108,17764.942608,-3701.029710,-79367.493593
272.002674,14508.036463,-1332.370696,-76915.987999
272.005241,7402.059420,148.041188,-76456.330700
272.007807,1332.370696,0.000000,-77682.083497
272.010374,-9326.594869,-3849.070898,-77069.207099
272.012941,-6513.812290,3552.988522,-77222.426198
272.015507,13767.830521,-2072.576638,-80133.589091
272.018074,13619.789333,-4145.153275,-77988.521696
272.020640,296.082377,1628.453072,-75843.454302
272.023207,3256.906145,-1036.288319,-75996.673402
272.025774,-1332.370696,-4441.235652,-80440.027290
272.028340,-7550.100608,5477.523971,-78141.740796
272.030907,296.082377,2664.741391,-77375.645298
272.033473,16136.489536,-4293.194464,-78141.740796
272.036040,-4145.153275,-2664.741391,-76303.111601
272.038607,6217.729913,296.082377,-77222.426198
272.041173,16876.695478,-2072.576638,-79061.055394
272.043740,6513.812290,0.000000,-78754.617194
272.046306,10066.800811,2220.617826,-77988.521696
272.048873,5181.441594,-5477.523971,-79214.274493
272.051440,7698.141797,-3108.864956,-76303.111601
272.054006,-2516.700203,1184.329507,-77528.864398
272.056573,14804.118840,-888.247130,-80899.684589
272.059139,3256.906145,-1776.494261,-78294.959896
272.061706,-13323.706956,3404.947333,-76762.768900
272.064277,-10658.965565,-5033.400406,-77222.426198
272.066848,-13175.665768,-3404.947333,-77988.521696
272.069419,-3108.864956,3849.070898,-77835.302597
272.071990,11251.130318,-444.123565,-78294.959896
272.074561,5773.606348,-3701.029710,-77988.521696
272.077132,-14211.954086,-1184.329507,-75843.454302
272.079703,-17172.777854,1628.453072,-74924.139704
272.082274,-8734.430116,-3849.070898,-77069.207099
272.084845,-2072.576638,1332.370696,-78907.836294
272.087416,9918.759623,2960.823768,-79980.369991
272.089987,2516.700203,-5625.565159,-79520.712692
272.092558,-12139.377449,2960.823768,-73391.948708
272.095129,-3701.029710,-1924.535449,-77069.207099
272.097700,4589.276840,-3404.947333,-80440.027290
272.100271,-5033.400406,1480.411884,-78141.740796
272.102842,-8438.347739,-740.205942,-76762.768900
272.105413,-6661.853478,-5625.565159,-77375.645298
272.107984,-18357.107362,-3701.029710,-78754.617194
272.110555,-11991.336260,5477.523971,-77375.645298
272.113126,1332.370696,-4293.194464,-79827.150892
272.115697,3256.906145,740.205942,-77835.302597
272.118268,148.041188,592.164754,-77069.207099
272.120839,-9622.677246,888.247130,-77222.426198
272.123410,-5181.441594,-4441.235652,-77222.426198
272.125981,-1332.370696,296.082377,-78601.398095
272.128552,15840.407159,2664.741391,-78448.178995
272.131123,21465.972318,-3256.906145,-78294.959896
272.133694,5033.400406,-2220.617826,-77528.864398
272.136265,-1480.411884,1480.411884,-77682.083497
272.138836,-4441.235652,-3849.070898,-76762.768900
272.141407,-8142.265362,888.247130,-77069.207099
272.143978,6365.771101,1184.329507,-78448.178995
272.146549,24278.754898,-888.247130,-79827.150892
272.149120,5921.647536,-3701.029710,-76762.768900
272.151691,-14508.036463,148.041188,-75843.454302
272.154262,6809.894666,-740.205942,-77528.864398
272.156833,-4145.153275,-5773.606348,-79520.712692
272.159404,1480.411884,6661.853478,-77528.864398
272.161975,10510.924376,-2516.700203,-80286.808190
272.164546,2368.659014,-2960.823768,-77835.302597
272.167119,2664.741391,740.205942,-76456.330700
272.169693,10658.965565,2516.700203,-78294.959896
272.172266,14508.036463,-1628.453072,-77682.083497
272.174840,2072.576638,-444.123565,-77222.426198
272.177413,1924.535449,-592.164754,-78141.740796
272.179986,2960.823768,-4589.276840,-77375.645298
272.182560,-1332.370696,148.041188,-76762.768900
272.185133,13471.748144,1776.494261,-78907.836294
272.187707,1480.411884,-444.123565,-79980.369991
272.190280,-16432.571912,-2664.741391,-75690.235202
272.192853,-16432.571912,-444.123565,-77222.426198
272.195427,-148.041188,-2960.823768,-79061.055394
272.198000,148.041188,-2220.617826,-79367.493593
272.200574,5477.523971,4293.194464,-78754.617194
272.203147,4737.318029,-3701.029710,-79061.055394
272.205720,-14656.077652,-3108.864956,-76456.330700
272.208294,-20281.642811,3552.988522,-77069.207099
272.210867,-7550.100608,296.082377,-79061.055394
272.213441,4293.194464,-1036.288319,-78754.617194
272.216014,-1480.411884,740.205942,-77682.083497
272.218587,-592.164754,-592.164754,-76456.330700
272.221161,-444.123565,-3997.112087,-78601.398095
272.223734,-14359.995275,3108.864956,-77069.207099
272.226308,2516.700203,888.247130,-77528.864398
272.228881,740.205942,-4441.235652,-77835.302597
272.231454,-13323.706956,740.205942,-77528.864398
272.234028,-14952.160028,444.123565,-77682.083497
272.236601,-8142.265362,-2812.782580,-78907.836294
272.239175,-11399.171507,-1776.494261,-79214.274493
272.241748,4145.153275,5477.523971,-76456.330700
272.244321,11399.171507,-7402.059420,-79673.931792
272.246895,-2368.659014,444.123565,-76762.768900
272.249468,-13915.871710,148.041188,-78601.398095
272.252042,-1184.329507,-2960.823768,-77835.302597
272.254615,3256.906145,-2960.823768,-78907.836294
272.257188,13767.830521,1924.535449,-78754.617194
272.259762,18801.230927,-592.164754,-78448.178995
272.262335,5181.441594,-4589.276840,-77835.302597
272.264909,-10807.006753,2072.576638,-75843.454302
272.267482,-2960.823768,148.041188,-79214.274493
272.270058,2072.576638,-1924.535449,-76762.768900
272.272633,3701.029710,1184.329507,-77988.521696
272.275209,22058.137072,-1776.494261,-77988.521696
272.277784,-592.164754,-5625.565159,-75690.235202
272.280360,-4885.359217,-1480.411884,-74770.920605
272.282936,-5033.400406,592.164754,-78907.836294
272.285511,5181.441594,-2220.617826,-81052.903688
272.288087,-2960.823768,-2072.576638,-76149.892501
272.290662,7846.182985,0.000000,-75230.577904
272.293238,11843.295072,-4737.318029,-77375.645298
272.295814,4145.153275,148.041188,-79673.931792
272.298389,10362.883188,2664.741391,-80133.589091
272.300965,10510.924376,-592.164754,-79367.493593
272.303541,1480.411884,-2368.659014,-79673.931792
272.306116,-2812.782580,148.041188,-75996.673402
272.308692,10066.800811,-2368.659014,-76915.987999
272.311267,9326.594869,-2072.576638,-78294.959896
272.313843,-5773.606348,4737.318029,-79367.493593
272.316419,-9030.512492,-2516.700203,-78601.398095
272.318994,-16284.530724,-4145.153275,-75690.235202
272.321570,-7254.018232,1332.370696,-76303.111601
272.324146,4885.359217,-1184.329507,-79061.055394
272.326721,10807.006753,-1332.370696,-78448.178995
272.329297,-8586.388927,-888.247130,-77835.302597
272.331872,-9474.636058,1628.453072,-75537.016103
272.334448,-9474.636058,-4293.194464,-77682.083497
272.337024,-8438.347739,2220.617826,-77375.645298
272.339599,-1036.288319,592.164754,-80593.246390
272.342175,10066.800811,-2516.700203,-78907.836294
272.344750,-6365.771101,296.082377,-74924.139704
272.347326,-7846.182985,1036.288319,-75996.673402
272.349902,740.205942,-1332.370696,-78294.959896
272.352477,-7550.100608,-2516.700203,-79980.369991
272.355053,-5329.482782,3404.947333,-78448.178995
272.357629,-6513.812290,-3256.906145,-76303.111601
272.360204,-17024.736666,-4441.235652,-77375.645298
272.362780,-16876.695478,4737.318029,-76456.330700
272.365355,-296.082377,-5181.441594,-79980.369991
272.367931,0.000000,0.000000,-76609.549800
272.370507,0.000000,1036.288319,-77528.864398
272.373084,888.247130,-148.041188,-77069.207099
272.375661,-9770.718434,-3256.906145,-76915.987999
272.378238,-5921.647536,444.123565,-76609.549800
272.380816,13471.748144,-148.041188,-79367.493593
272.383393,20281.642811,-2812.782580,-78141.740796
272.385970,7846.182985,444.123565,-77375.645298
272.388547,8438.347739,-1184.329507,-78141.740796
272.391125,-4441.235652,-3701.029710,-77682.083497
272.393702,-5625.565159,-888.247130,-77375.645298
272.396279,8438.347739,2812.782580,-77682.083497
272.398856,15248.242405,-2516.700203,-80133.589091
272.401433,4589.276840,-1924.535449,-76762.768900
272.404011,-1036.288319,740.205942,-74924.139704
272.406588,-296.082377,-4293.194464,-76609.549800
272.409165,-5477.523971,1480.411884,-79214.274493
272.411742,5625.565159,1480.411884,-78907.836294
272.414320,7105.977043,-2072.576638,-76762.768900
272.416897,9178.553681,-3404.947333,-77988.521696
272.419474,4737.318029,592.164754,-78141.740796
272.422051,16580.613101,-888.247130,-79673.931792
272.424629,5921.647536,-2664.741391,-77988.521696
272.427206,740.205942,2664.741391,-77069.207099
272.429783,5181.441594,-2664.741391,-78754.617194
272.432360,3404.947333,-4441.235652,-77528.864398
272.434938,3108.864956,0.000000,-78601.398095
272.437515,1924.535449,4441.235652,-79673.931792
272.440092,-10658.965565,-3701.029710,-79673.931792
272.442669,-17912.983796,148.041188,-74158.044206
272.445247,-8142.265362,-2516.700203,-77375.645298
272.447824,4293.194464,-1332.370696,-79673.931792
272.450401,1628.453072,1480.411884,-79367.493593
272.452978,5773.606348,1776.494261,-77222.426198
272.455556,-6217.729913,-3997.112087,-77682.083497
272.458133,-17764.942608,-4293.194464,-76456.330700
272.460710,-4737.318029,592.164754,-77375.645298
272.463287,6513.812290,-1480.411884,-80746.465489
272.465864,1480.411884,-3108.864956,-79367.493593
272.468442,-4885.359217,2220.617826,-76456.330700
272.471019,-4737.318029,-3849.070898,-75077.358804
272.473596,2368.659014,-5033.400406,-78448.178995
272.476134,-6809.894666,5477.523971,-79520.712692
272.478672,2960.823768,-3108.864956,-81665.780087
272.481211,-7994.224174,-5033.400406,-80593.246390
272.483749,-17912.983796,296.082377,-77375.645298
272.486287,-14804.118840,592.164754,-75996.673402
272.488825,148.041188,-6513.812290,-77069.207099
272.491363,-888.247130,1924.535449,-77528.864398
272.493901,11103.089130,740.205942,-78754.617194
272.496439,-1480.411884,-5625.565159,-79520.712692
272.498977,-15396.283594,1924.535449,-75077.358804
272.501516,-1184.329507,-2368.659014,-76456.330700
272.504054,18505.148550,-2368.659014,-77835.302597
272.506592,13323.706956,-1332.370696,-76303.111601
272.509130,10658.965565,1332.370696,-78754.617194
272.511668,6069.688724,-4441.235652,-79367.493593
272.514206,-8290.306550,-888.247130,-76303.111601
272.516744,-5033.400406,3108.864956,-75996.673402
272.519282,5773.606348,-3552.988522,-79367.493593
272.521821,15840.407159,-2072.576638,-77835.302597
272.524359,9770.718434,3701.029710,-78601.398095
272.526897,-2220.617826,-740.205942,-74158.044206
272.529435,2812.782580,-3552.988522,-78754.617194
272.531973,-6809.894666,2072.576638,-80899.684589
272.534511,8290.306550,740.205942,-77222.426198
272.537049,6365.771101,-3849.070898,-78294.959896
272.539587,5181.441594,-3701.029710,-77682.083497
272.542126,9770.718434,1480.411884,-75996.673402
272.544664,11695.253884,-3256.906145,-78294.959896
272.547202,-2072.576638,444.123565,-79673.931792
272.549740,2812.782580,1628.453072,-76456.330700
272.552278,5773.606348,-2960.823768,-77988.521696
272.554816,10362.883188,-4293.194464,-77682.083497
272.557354,-1480.411884,2516.700203,-77222.426198
272.559892,-3997.112087,740.205942,-79367.493593
272.562431,-16728.654289,-1184.329507,-78141.740796
272.564969,-16432.571912,-1184.329507,-76915.987999
272.567507,1184.329507,-1036.288319,-77835.302597
272.570045,5921.647536,-4145.153275,-79673.931792
272.572583,148.041188,2220.617826,-78294.959896
272.575121,-5033.400406,740.205942,-76609.549800
272.577668,-9326.594869,-3849.070898,-75383.797003
272.580215,-13767.830521,-444.123565,-77682.083497
272.582762,3108.864956,888.247130,-79520.712692
272.585310,5329.482782,-2664.741391,-79214.274493
272.587857,-592.164754,1480.411884,-75383.797003
272.590404,-2072.576638,-1924.535449,-77682.083497
272.592951,-740.205942,-3849.070898,-77835.302597
272.595498,-2220.617826,-1332.370696,-76303.111601
272.598045,-8438.347739,3108.864956,-80133.589091
272.600592,-1480.411884,-1184.329507,-78601.398095
272.603139,-16876.695478,-4145.153275,-77988.521696
272.605686,-13915.871710,3108.864956,-76915.987999
272.608234,-5773.606348,-3108.864956,-78294.959896
272.610781,2664.741391,-1628.453072,-77988.521696
272.613328,4885.359217,2516.700203,-79061.055394
272.615875,4145.153275,-4145.153275,-77988.521696
272.618422,-7254.018232,-2368.659014,-79214.274493
272.620969,-7105.977043,-1332.370696,-78601.398095
272.623516,10066.800811,740.205942,-77528.864398
272.626063,19837.519246,-3404.947333,-77835.302597
272.628610,6365.771101,888.247130,-77682.083497
272.631158,6217.729913,-444.123565,-78448.178995
272.633705,-2960.823768,-5033.400406,-77528.864398
272.636252,-8882.471304,1924.535449,-76915.987999
272.638799,-148.041188,2664.741391,-78294.959896
272.641346,23390.507767,-3404.947333,-78907.836294
272.643893,3701.029710,-1036.288319,-77988.521696
272.646440,740.205942,888.247130,-79061.055394
272.648987,-3108.864956,-4293.194464,-78907.836294
272.651534,-1628.453072,1036.288319,-75537.016103
272.654082,1184.329507,592.164754,-78601.398095
272.656629,15100.201217,-888.247130,-76762.768900
272.659178,5921.647536,-6809.894666,-80133.589091
272.661732,7698.141797,740.205942,-77988.521696
272.664286,9030.512492,740.205942,-80440.027290
272.666841,6661.853478,-1924.535449,-78907.836294
272.669395,-3997.112087,1332.370696,-77528.864398
272.671949,11399.171507,-1628.453072,-75843.454302
272.674503,9030.512492,-5033.400406,-77682.083497
272.677058,1184.329507,2072.576638,-78448.178995
272.679612,-6809.894666,1776.494261,-78294.959896
272.682166,-16136.489536,-2220.617826,-77069.207099
272.684721,-14063.912898,-2072.576638,-75383.797003
272.687275,2072.576638,1776.494261,-76609.549800
272.689829,7402.059420,-3108.864956,-79520.712692
272.692383,444.123565,-444.123565,-78601.398095
272.694938,-6809.894666,2368.659014,-77528.864398
272.697492,-13915.871710,-4293.194464,-76915.987999
272.700046,-25759.166782,-592.164754,-77222.426198
272.702600,-740.205942,0.000000,-78294.959896
272.705155,9622.677246,-592.164754,-78601.398095
272.707709,296.082377,-3108.864956,-76303.111601
272.710263,-9030.512492,296.082377,-77222.426198
272.712817,-2960.823768,-296.082377,-79061.055394
272.715372,-5625.565159,-2960.823768,-79673.931792
272.717926,-10066.800811,3404.947333,-77528.864398
272.720480,-3701.029710,-1332.370696,-76303.111601
272.723035,-12435.459826,-4737.318029,-78754.617194
272.725589,-17912.983796,3701.029710,-77528.864398
272.728143,-1184.329507,2516.700203,-78141.740796
272.730697,8142.265362,-4885.359217,-80133.589091
272.733252,1628.453072,2516.700203,-77069.207099
272.735806,-3849.070898,-740.205942,-76762.768900
272.738360,-1924.535449,-4293.194464,-77375.645298
272.740914,-3552.988522,740.205942,-77835.302597
272.743469,12879.583391,0.000000,-77988.521696
272.746023,20281.642811,-3552.988522,-79061.055394
272.748577,4589.276840,-888.247130,-76762.768900
272.751132,-592.164754,1628.453072,-78141.740796
272.753686,-1036.288319,-2368.659014,-76762.768900
272.756240,-592.164754,-2368.659014,-77988.521696
272.758794,-1776.494261,2960.823768,-78601.398095
272.761355,17172.777854,-3997.112087,-79827.150892
272.763915,4293.194464,-2812.782580,-75843.454302
272.766475,-7698.141797,1332.370696,-76915.987999
272.769036,888.247130,-1036.288319,-79367.493593
272.771596,3997.112087,-4885.359217,-78754.617194
272.774156,-592.164754,740.205942,-78448.178995
272.776717,15100.201217,-740.205942,-75843.454302
272.779277,16284.530724,-4589.276840,-78754.617194
272.781837,5477.523971,1332.370696,-76609.549800
272.784398,592.164754,1924.535449,-77375.645298
272.786958,6513.812290,-5033.400406,-77528.864398
272.789518,-2072.576638,1776.494261,-77222.426198
272.792079,15248.242405,-1776.494261,-78907.836294
272.794639,10658.965565,-3108.864956,-77528.864398
272.797200,-12435.459826,-1184.329507,-78141.740796
272.799760,-17616.901420,2812.782580,-77222.426198
272.802320,-9770.718434,-5773.606348,-78907.836294
272.804881,-6513.812290,592.164754,-75230.577904
272.807441,3701.029710,444.123565,-79061.055394
272.810001,11991.336260,-3108.864956,-78141.740796
272.812562,-6217.729913,-1628.453072,-76762.768900
272.815122,-14359.995275,2960.823768,-75843.454302
272.817682,-20133.601622,-4589.276840,-77988.521696
272.820243,6217.729913,-2664.741391,-80440.027290
272.822803,-6809.894666,2812.782580,-79520.712692
272.825363,2368.659014,-740.205942,-77222.426198
272.827924,0.000000,-5773.606348,-74617.701505
272.830484,-9918.759623,148.041188,-77528.864398
272.833044,1332.370696,3108.864956,-79827.150892
272.835605,-5181.441594,-3256.906145,-81512.560987
272.838165,-13767.830521,2368.659014,-75230.577904
272.840725,-13915.871710,1184.329507,-78294.959896
272.843286,-8438.347739,-7105.977043,-77835.302597
272.845846,-6069.688724,592.164754,-74158.044206
272.848406,2960.823768,1628.453072,-79061.055394
272.850967,7402.059420,-2812.782580,-79980.369991
272.853527,-8142.265362,-1184.329507,-76762.768900
272.856087,-5033.400406,-740.205942,-75230.577904
272.858648,6365.771101,-3552.988522,-77988.521696
272.861208,7846.182985,888.247130,-77375.645298
272.863773,10658.965565,1924.535449,-75537.016103
272.866337,11547.212695,-3849.070898,-79061.055394
272.868901,-444.123565,-2368.659014,-77835.302597
272.871466,-9622.677246,1924.535449,-77682.083497
272.874030,3849.070898,-1332.370696,-77528.864398
272.876595,10510.924376,-4737.318029,-76609.549800
272.879159,11103.089130,2960.823768,-77988.521696
272.881723,2368.659014,-3849.070898,-79980.369991
272.884288,888.247130,-1036.288319,-76149.892501
272.886852,-3108.864956,0.000000,-80286.808190
272.889417,-4145.153275,-444.123565,-79520.712692
272.891981,18357.107362,0.000000,-75230.577904
272.894546,4737.318029,-3256.906145,-75537.016103
272.897110,14656.077652,1924.535449,-78601.398095
272.899674,9918.759623,-2960.823768,-79827.150892
272.902239,148.041188,2368.659014,-77375.645298
272.904803,-1184.329507,-296.082377,-77222.426198
272.907368,13175.665768,-3256.906145,-77835.302597
272.909932,8290.306550,-3552.988522,-77528.864398
272.912496,888.247130,3108.864956,-76303.111601
272.915061,-11695.253884,-1924.535449,-80286.808190
272.917625,-18061.024985,-1924.535449,-78141.740796
272.920190,-14656.077652,740.205942,-76456.330700
272.922754,7698.141797,-2368.659014,-77682.083497
272.925319,0.000000,-1776.494261,-78294.959896
272.927883,2664.741391,1332.370696,-79673.931792
272.930447,-10214.842000,-1184.329507,-77069.207099
272.933012,-19097.313304,-2072.576638,-77069.207099
272.935576,-10955.047942,-296.082377,-76456.330700
272.938141,2664.741391,-148.041188,-79367.493593
272.940705,6957.935855,-2664.741391,-79520.712692
272.943269,-9770.718434,148.041188,-76456.330700
272.945834,-444.123565,-444.123565,-76915.987999
272.948398,-4441.235652,-4589.276840,-78294.959896
272.950963,-10807.006753,2960.823768,-79061.055394
272.953527,-11991.336260,3108.864956,-76456.330700
272.956091,-10066.800811,-1036.288319,-78448.178995
272.958656,-6513.812290,-4885.359217,-76456.330700
272.961220,-10214.842000,1628.453072,-76609.549800
272.963785,6661.853478,-444.123565,-78141.740796
272.966353,5033.400406,-1776.494261,-78754.617194
272.968921,-8290.306550,-740.205942,-77375.645298
272.971489,-740.205942,-296.082377,-76149.892501
272.974057,6513.812290,-4589.276840,-76915.987999
272.976625,9622.677246,-296.082377,-77988.521696
272.979193,14063.912898,2664.741391,-78141.740796
272.981761,10807.006753,-4441.235652,-77988.521696
272.984329,-2812.782580,-444.123565,-76609.549800
272.986897,-5033.400406,888.247130,-78448.178995
272.989465,8734.430116,-1776.494261,-78601.398095
272.992033,3997.112087,-296.082377,-77835.302597
272.994601,8734.430116,2368.659014,-77988.521696
272.997169,9326.594869,-5329.482782,-78907.836294
272.999737,3404.947333,-4293.194464,-79061.055394
273.002305,-10214.842000,1628.453072,-75843.454302
273.004873,11399.171507,1332.370696,-76456.330700
273.007441,12583.501014,-6069.688724,-79673.931792
273.010009,5625.565159,3552.988522,-78141.740796
273.012577,16876.695478,-3552.988522,-76915.987999
273.015145,7698.141797,-2220.617826,-77528.864398
273.017713,-3849.070898,1628.453072,-76762.768900
273.020281,4885.359217,888.247130,-78448.178995
273.022849,9622.677246,-4589.276840,-78294.959896
273.025417,7402.059420,-1184.329507,-76915.987999
273.027985,-2220.617826,2516.700203,-78754.617194
273.030553,-12139.377449,-4145.153275,-77682.083497
273.033121,-20429.683999,-1036.288319,-75690.235202
273.035689,-8290.306550,592.164754,-78448.178995
273.038257,3552.988522,-3552.988522,-79214.274493
273.040825,2516.700203,-444.123565,-77528.864398
273.043393,4737.318029,888.247130,-77528.864398
273.045961,-7698.141797,-2072.576638,-76149.892501
273.048529,-25167.002028,-3108.864956,-77375.645298
273.051097,-12287.418637,2368.659014,-77069.207099
273.053665,14063.912898,-1480.411884,-79214.274493
273.056233,-888.247130,-1480.411884,-78754.617194
273.058801,-11399.171507,3108.864956,-76609.549800
273.061369,6069.688724,-4885.359217,-76456.330700
273.063937,-5033.400406,-1924.535449,-76149.892501
273.066505,-8290.306550,2368.659014,-76762.768900
273.069038,-12435.459826,2072.576638,-77528.864398
273.071571,-4885.359217,-5033.400406,-78601.398095
273.074105,-15988.448347,-740.205942,-75996.673402
273.076638,-592.164754,740.205942,-77069.207099
273.079171,3849.070898,-3256.906145,-77069.207099
273.081705,-1332.370696,740.205942,-77222.426198
273.084238,-3108.864956,1184.329507,-77988.521696
273.086772,2368.659014,-5921.647536,-78294.959896
273.089305,6513.812290,-2516.700203,-79061.055394
273.091838,11843.295072,3108.864956,-78141.740796
273.094372,19689.478057,-2220.617826,-78294.959896
273.096905,3997.112087,-3552.988522,-77528.864398
273.099439,-4145.153275,2368.659014,-77069.207099
273.101972,592.164754,-296.082377,-78601.398095
273.104505,3404.947333,-4737.318029,-78294.959896
273.107039,6365.771101,3701.029710,-77682.083497
273.109572,9770.718434,0.000000,-76456.330700
273.112106,3108.864956,-3997.112087,-78601.398095
273.114639,-5477.523971,148.041188,-77069.207099
273.117172,-2812.782580,1184.329507,-76915.987999
273.119706,7105.977043,-2960.823768,-77222.426198
273.122239,5033.400406,-148.041188,-77222.426198
273.124772,15692.365970,1480.411884,-76915.987999
273.127306,13323.706956,-4737.318029,-80440.027290
273.129839,-1036.288319,2072.576638,-77222.426198
273.132373,-2812.782580,2516.700203,-77988.521696
273.134906,9030.512492,-3404.947333,-79214.274493
273.137439,8438.347739,-1924.535449,-77069.207099
273.139973,4589.276840,2368.659014,-78141.740796
273.142506,-8142.265362,-1036.288319,-78294.959896
273.145040,-20429.683999,-2072.576638,-77375.645298
273.147573,-15544.324782,592.164754,-77375.645298
273.150106,2516.700203,-2664.741391,-79367.493593
273.152640,148.041188,-2220.617826,-78141.740796
273.155173,148.041188,1184.329507,-77375.645298
273.157706,-5033.400406,-148.041188,-77222.426198
273.160240,-19837.519246,-1776.494261,-75383.797003
273.162773,-12583.501014,-1184.329507,-77069.207099
273.165307,444.123565,1776.494261,-78601.398095
273.167840,9622.677246,-3849.070898,-81206.122788
273.170383,-9030.512492,296.082377,-76915.987999
273.172926,4885.359217,-1036.288319,-75230.577904
273.175469,740.205942,-5477.523971,-79214.274493
273.178012,-11695.253884,-1776.494261,-78754.617194
273.180555,-10066.800811,1924.535449,-76762.768900
273.183098,-4885.359217,-2812.782580,-79367.493593
273.185641,-13471.748144,-3108.864956,-77988.521696
273.188184,-6809.894666,2516.700203,-75690.235202
273.190727,5921.647536,-5033.400406,-77682.083497
273.193270,-2220.617826,1924.535449,-79061.055394
273.195813,-6513.812290,740.205942,-78754.617194
273.198356,740.205942,-3997.112087,-77682.083497
273.200899,9918.759623,-3552.988522,-78601.398095
273.203441,8438.347739,2516.700203,-78448.178995
273.205984,19097.313304,-888.247130,-77528.864398
273.208527,6957.935855,-4589.276840,-77069.207099
273.211070,-4885.359217,1628.453072,-76609.549800
273.213613,-1184.329507,-740.205942,-78294.959896
273.216156,2516.700203,-2220.617826,-78294.959896
273.218699,6513.812290,0.000000,-76609.549800
273.221242,11991.336260,2516.700203,-77528.864398
273.223785,740.205942,-3701.029710,-76762.768900
273.226328,-3552.988522,-5033.400406,-75537.016103
273.228871,740.205942,2072.576638,-77835.302597
273.231414,9326.594869,1332.370696,-77988.521696
273.233957,6365.771101,-1776.494261,-79673.931792
273.236500,13175.665768,296.082377,-76762.768900
273.239043,16136.489536,-3849.070898,-74464.482406
273.241586,-2220.617826,-2072.576638,-76609.549800
273.244129,-6217.729913,1924.535449,-76456.330700
273.246672,8438.347739,-1924.535449,-78141.740796
273.249215,10807.006753,-3256.906145,-78907.836294
273.251758,-592.164754,3108.864956,-79061.055394
273.254301,-10510.924376,0.000000,-77682.083497
273.256844,-17764.942608,-3701.029710,-76609.549800
273.259387,-17912.983796,148.041188,-76149.892501
273.261930,3997.112087,-444.123565,-78754.617194
273.264473,5181.441594,-2368.659014,-79214.274493
273.267016,-1332.370696,-1036.288319,-77682.083497
273.269558,-8438.347739,148.041188,-76762.768900
273.272110,-18949.272115,-1332.370696,-75383.797003
273.274661,-12731.542202,-2220.617826,-77682.083497
273.277212,4737.318029,3701.029710,-79367.493593
273.279763,1924.535449,-5033.400406,-81972.218286
273.282314,-4293.194464,2812.782580,-74924.139704
273.284865,-1628.453072,-4293.194464,-76149.892501
273.287416,-2516.700203,-1184.329507,-76303.111601
273.289967,-5625.565159,296.082377,-76609.549800
273.292518,-16728.654289,1776.494261,-78448.178995
273.295069,-2368.659014,-1924.535449,-80440.027290
273.297620,-9030.512492,-3701.029710,-79214.274493
273.300171,-5181.441594,1480.411884,-77528.864398
273.302722,4441.235652,148.041188,-77528.864398
273.305274,-1924.535449,-2516.700203,-78448.178995
273.307825,-10066.800811,2960.823768,-80746.465489
273.310376,7105.977043,-4589.276840,-77528.864398
273.312927,13471.748144,-3108.864956,-79520.712692
273.315478,11547.212695,0.000000,-77835.302597
273.318029,10807.006753,888.247130,-77682.083497
273.320580,5329.482782,-3849.070898,-75996.673402
273.323131,-9326.594869,-1036.288319,-77069.207099
273.325682,148.041188,2072.576638,-79214.274493
273.328233,16432.571912,-5033.400406,-79367.493593
273.330784,7994.224174,1184.329507,-77528.864398
273.333335,-4737.318029,592.164754,-76149.892501
273.335887,4737.318029,-2960.823768,-79061.055394
273.338438,1628.453072,-5033.400406,-78448.178995
273.340989,-296.082377,6365.771101,-76762.768900
273.343540,10066.800811,-2664.741391,-78601.398095
273.346091,14211.954086,-1924.535449,-78294.959896
273.348642,11251.130318,-296.082377,-77682.083497
273.351193,11103.089130,-3256.906145,-78448.178995
273.353744,888.247130,-3256.906145,-77682.083497
273.356295,-3108.864956,-740.205942,-76762.768900
273.358846,11547.212695,592.164754,-78448.178995
273.361397,11547.212695,-888.247130,-77835.302597
273.363948,-11991.336260,888.247130,-77988.521696
273.366499,-15100.201217,444.123565,-76915.987999
273.369051,-7994.224174,-4145.153275,-77069.207099
273.371602,-3997.112087,-888.247130,-77222.426198
273.374123,148.041188,2664.741391,-79061.055394
273.376645,11695.253884,-3552.988522,-79827.150892
273.379166,-4293.194464,-4589.276840,-76762.768900
273.381687,-15248.242405,2220.617826,-73391.948708
273.384209,-10362.883188,-1776.494261,-78448.178995
273.386730,3256.906145,-2368.659014,-79673.931792
273.389252,-296.082377,444.123565,-78601.398095
273.391773,592.164754,-592.164754,-75230.577904
273.394295,-2812.782580,-3404.947333,-76456.330700
273.396816,-15544.324782,-888.247130,-78141.740796
273.399338,-9770.718434,2812.782580,-79214.274493
273.401859,-6513.812290,-3701.029710,-80286.808190
273.404380,-11547.212695,-444.123565,-76303.111601
273.406902,-6513.812290,-1036.288319,-77375.645298
273.409423,1036.288319,-4145.153275,-78141.740796
273.411945,-3108.864956,-1184.329507,-77222.426198
273.414466,-5477.523971,2368.659014,-79367.493593
273.416988,2516.700203,-2516.700203,-78907.836294
273.419509,-1332.370696,-1480.411884,-76915.987999
273.422031,9770.718434,1036.288319,-76762.768900
273.424552,19097.313304,148.041188,-78448.178995
273.427074,8290.306550,-2516.700203,-78448.178995
273.429595,-3108.864956,888.247130,-77222.426198
273.432116,-3256.906145,-592.164754,-76762.768900
273.434638,592.164754,-4145.153275,-76762.768900
273.437159,9770.718434,-1480.411884,-78907.836294
273.439681,17912.983796,1036.288319,-77988.521696
273.442202,7402.059420,-1480.411884,-77682.083497
273.444724,-7254.018232,-1184.329507,-77528.864398
273.447245,740.205942,1776.494261,-79061.055394
273.449767,10510.924376,-1776.494261,-79520.712692
273.452288,5921.647536,592.164754,-76149.892501
273.454810,13323.706956,148.041188,-77835.302597
273.457331,18949.272115,-2516.700203,-76915.987999
273.459852,148.041188,-3552.988522,-78141.740796
273.462374,-444.123565,4441.235652,-77069.207099
273.464895,7105.977043,-6069.688724,-78601.398095
273.467417,12583.501014,-2664.741391,-80286.808190
273.469938,-4441.235652,2368.659014,-77069.207099
273.472460,-8734.430116,1184.329507,-77222.426198
273.474994,-16136.489536,-3552.988522,-76762.768900
273.477528,-15840.407159,-444.123565,-76762.768900
273.480062,5033.400406,1332.370696,-77528.864398
273.482597,6957.935855,-2812.782580,-77682.083497
273.485131,740.205942,2960.823768,-77988.521696
273.487665,-592.164754,-2220.617826,-78907.836294
273.490199,-7105.977043,-4145.153275,-74617.701505
273.492734,-8734.430116,-148.041188,-76303.111601
273.495268,-2072.576638,1776.494261,-81665.780087
273.497802,14359.995275,-2812.782580,-79673.931792
273.500336,-11695.253884,-1184.329507,-73391.948708
273.502871,2516.700203,296.082377,-75843.454302
273.505405,-6809.894666,-4293.194464,-79673.931792
273.507939,-14359.995275,2072.576638,-80286.808190
273.510473,-15396.283594,1332.370696,-77375.645298
273.513008,3108.864956,-1480.411884,-79214.274493
273.515542,-4441.235652,-2664.741391,-77222.426198
273.518076,-4441.235652,0.000000,-75690.235202
273.520610,-444.123565,-1776.494261,-79367.493593
273.523145,-3256.906145,-1924.535449,-78294.959896
273.525679,-7846.182985,888.247130,-78601.398095
273.528213,13027.624579,-1184.329507,-77528.864398
273.530747,16432.571912,-4441.235652,-77528.864398
273.533282,9030.512492,2516.700203,-79061.055394
273.535816,3701.029710,0.000000,-77222.426198
273.538350,-888.247130,-3256.906145,-76456.330700
273.540884,-9030.512492,-2664.741391,-77375.645298
273.543418,10510.924376,3108.864956,-79520.712692
273.545953,12435.459826,-4145.153275,-78907.836294
273.548487,3701.029710,-592.164754,-77069.207099
273.551021,-2368.659014,-592.164754,-76149.892501
273.553555,-592.164754,-3108.864956,-77682.083497
273.556090,2960.823768,-2960.823768,-79061.055394
273.558624,592.164754,3404.947333,-76762.768900
273.561158,21021.848753,-1776.494261,-78907.836294
273.563692,14508.036463,-3849.070898,-77222.426198
273.566227,2368.659014,888.247130,-79061.055394
273.568761,3701.029710,-1480.411884,-77528.864398
273.571295,0.000000,-2664.741391,-77988.521696
273.573829,3997.112087,1332.370696,-77069.207099
273.576339,14359.995275,-592.164754,-79367.493593
273.578848,-8142.265362,-2812.782580,-77988.521696
273.581357,-21465.972318,-740.205942,-74617.701505
273.583866,-10510.924376,-740.205942,-78141.740796
273.586376,-1628.453072,-2072.576638,-77835.302597
273.588885,740.205942,444.123565,-77069.207099
273.591394,9918.759623,148.041188,-79367.493593
273.593903,444.123565,-4737.318029,-76762.768900
273.596413,-10658.965565,2220.617826,-74464.482406
273.598922,-15692.365970,296.082377,-76915.987999
273.601431,6957.935855,-1924.535449,-79520.712692
273.603940,888.247130,-2516.700203,-79520.712692
273.606449,-1628.453072,5773.606348,-78294.959896
273.608959,-3997.112087,-3701.029710,-76762.768900
273.611468,-4885.359217,-3849.070898,-75690.235202
273.613977,-16432.571912,3701.029710,-77682.083497
273.616486,-7105.977043,-1924.535449,-81206.122788
273.618996,-10510.924376,-888.247130,-76303.111601
273.621505,-3108.864956,592.164754,-76609.549800
273.624014,888.247130,-2072.576638,-79367.493593
273.626523,-296.082377,-1924.535449,-77222.426198
273.629033,-12435.459826,2072.576638,-75843.454302
273.631542,-1776.494261,-592.164754,-77835.302597
273.634051,12583.501014,-3849.070898,-78601.398095
273.636560,10066.800811,296.082377,-76303.111601
273.639070,16728.654289,0.000000,-78141.740796
273.641579,7846.182985,-5181.441594,-77682.083497
273.644088,-7994.224174,296.082377,-75690.235202
273.646597,-4145.153275,444.123565,-77069.207099
273.649107,6513.812290,-1924.535449,-79673.931792
273.651616,5625.565159,-2812.782580,-79367.493593
273.654125,7402.059420,3108.864956,-77222.426198
273.656634,3997.112087,-5625.565159,-77222.426198
273.659144,-8290.306550,-1184.329507,-76609.549800
273.661653,4589.276840,296.082377,-79980.369991
273.664162,11103.089130,-1924.535449,-79673.931792
273.666671,16432.571912,-3108.864956,-77682.083497
273.669180,9918.759623,1924.535449,-78294.959896
273.671690,8882.471304,-1036.288319,-77835.302597
273.674199,1184.329507,-2516.700203,-77375.645298
273.676723,-2812.782580,888.247130,-75996.673402
273.679248,14656.077652,-592.164754,-79520.712692
273.681773,8290.306550,-2516.700203,-78601.398095
273.684298,-16728.654289,1628.453072,-77528.864398
273.686823,-13027.624579,-1332.370696,-75383.797003
273.689348,-8586.388927,-4145.153275,-77375.645298
273.691873,-3256.906145,0.000000,-77375.645298
273.694398,1924.535449,1184.329507,-78754.617194
273.696923,11103.089130,-3997.112087,-78907.836294
273.699448,-14359.995275,-1332.370696,-76303.111601
273.701972,-8142.265362,592.164754,-75383.797003
273.704497,-1924.535449,-3701.029710,-76609.549800
273.707022,-1184.329507,296.082377,-78601.398095
273.709547,2960.823768,1184.329507,-82125.437386
273.712072,-7105.977043,740.205942,-80899.684589
273.714597,-148.041188,-1924.535449,-76762.768900
273.717122,-21910.095883,1628.453072,-76609.549800
273.719647,-4737.318029,1184.329507,-76609.549800
273.722172,-15248.242405,-2368.659014,-79980.369991
273.724697,-7105.977043,2072.576638,-78448.178995
273.727222,2368.659014,-2368.659014,-79214.274493
273.729747,6217.729913,-2516.700203,-75077.358804
273.732271,-12731.542202,-1480.411884,-77988.521696
273.734796,-4589.276840,4441.235652,-75996.673402
273.737321,6069.688724,-4737.318029,-78754.617194
273.739846,9770.718434,-888.247130,-78601.398095
273.742371,17172.777854,1628.453072,-77528.864398
273.744896,14656.077652,-3849.070898,-78907.836294
273.747421,-5033.400406,-2220.617826,-77069.207099
273.749946,-4145.153275,4293.194464,-77222.426198
273.752471,1924.535449,-6069.688724,-79061.055394
273.754996,2516.700203,-3701.029710,-78294.959896
273.757521,10807.006753,2960.823768,-77069.207099
273.760046,4145.153275,-2960.823768,-78141.740796
273.762571,0.000000,-2368.659014,-77835.302597
273.765095,-6069.688724,1184.329507,-77988.521696
273.767620,7550.100608,-1480.411884,-79980.369991
273.770145,10214.842000,-3849.070898,-78141.740796
273.772670,12435.459826,3552.988522,-75843.454302
273.775195,16136.489536,-3997.112087,-78141.740796
273.777734,4737.318029,-3701.029710,-77069.207099
273.780272,1036.288319,-1480.411884,-78448.178995
273.782810,7254.018232,2368.659014,-77222.426198
273.785348,10807.006753,-740.205942,-79520.712692
273.787887,-12139.377449,-3256.906145,-77375.645298
273.790425,-19837.519246,3108.864956,-76762.768900
273.792963,-7402.059420,-4145.153275,-78294.959896
273.795502,-8142.265362,-444.123565,-77528.864398
273.798040,1184.329507,1628.453072,-77988.521696
273.800578,8438.347739,296.082377,-77682.083497
273.803117,-2812.782580,-6069.688724,-77375.645298
273.805655,-13767.830521,2960.823768,-74617.701505
273.808193,-15544.324782,-2072.576638,-77069.207099
273.810732,8734.430116,-2960.823768,-78754.617194
273.813270,-6957.935855,-148.041188,-77835.302597
273.815808,5625.565159,592.164754,-76149.892501
273.818347,-3849.070898,-2812.782580,-77069.207099
273.820885,-14804.118840,1332.370696,-77835.302597
273.823423,-18061.024985,2368.659014,-79520.712692
273.825962,-6069.688724,-3108.864956,-78754.617194
273.828500,-7846.182985,-3256.906145,-76303.111601
273.831038,740.205942,1628.453072,-76762.768900
273.833577,3404.947333,-3849.070898,-78907.836294
273.836115,-10362.883188,-2664.741391,-77528.864398
273.838653,-5181.441594,4293.194464,-76303.111601
273.841192,6809.894666,-3849.070898,-79214.274493
273.843730,10658.965565,-1628.453072,-78448.178995
273.846268,13619.789333,296.082377,-76762.768900
273.848807,12435.459826,-1480.411884,-77682.083497
273.851345,1480.411884,-2220.617826,-78141.740796
273.853883,-13027.624579,296.082377,-76149.892501
273.856422,-296.082377,592.164754,-77528.864398
273.858970,8438.347739,-3404.947333,-79061.055394
273.861518,11103.089130,1184.329507,-77375.645298
273.864066,3849.070898,-2516.700203,-79061.055394
273.866614,2368.659014,-888.247130,-75690.235202
273.869162,888.247130,-3997.112087,-78601.398095
273.871710,2664.741391,2960.823768,-78601.398095
273.874259,17468.860231,-2220.617826,-77069.207099
273.876807,12287.418637,-2516.700203,-75230.577904
273.879355,7105.977043,1776.494261,-76762.768900
273.881903,5033.400406,-5921.647536,-80286.808190
273.884451,-5181.441594,148.041188,-77988.521696
273.886999,9622.677246,1332.370696,-77528.864398
273.889547,9030.512492,-2664.741391,-78754.617194
273.892095,-10214.842000,-2960.823768,-78141.740796
273.894643,-21910.095883,296.082377,-74924.139704
273.897192,-7994.224174,-1332.370696,-77528.864398
273.899740,-1480.411884,-1924.535449,-78907.836294
273.902288,-2072.576638,2368.659014,-77682.083497
273.904836,10510.924376,-2516.700203,-79061.055394
273.907384,-1628.453072,-2960.823768,-78141.740796
273.909932,-23538.548956,4441.235652,-76149.892501
273.912480,-9622.677246,296.082377,-77528.864398
273.915028,7846.182985,-2812.782580,-80133.589091
273.917577,592.164754,888.247130,-77835.302597
273.920125,-3849.070898,740.205942,-76762.768900
273.922673,-148.041188,-4589.276840,-76762.768900
273.925221,-18949.272115,-1332.370696,-76609.549800
273.927769,-13471.748144,2516.700203,-77682.083497
273.930317,-8734.430116,-1628.453072,-79061.055394
273.932865,-5329.482782,592.164754,-76915.987999
273.935413,296.082377,148.041188,-77222.426198
273.937961,2516.700203,-1924.535449,-77988.521696
273.940510,-9918.759623,-3701.029710,-77375.645298
273.943058,-5329.482782,3404.947333,-75230.577904
273.945606,11695.253884,-2516.700203,-78754.617194
273.948154,13915.871710,-2664.741391,-79214.274493
273.950702,13471.748144,592.164754,-78448.178995
273.953250,11251.130318,-3256.906145,-77835.302597
273.955798,-7254.018232,-3552.988522,-78448.178995
273.958346,-7402.059420,740.205942,-77222.426198
273.960903,1776.494261,2516.700203,-79214.274493
273.963460,9770.718434,-3256.906145,-79367.493593
273.966016,11103.089130,-740.205942,-76303.111601
273.968573,-7846.182985,888.247130,-74311.263306
273.971129,9918.759623,-3997.112087,-78141.740796
273.973686,-9178.553681,296.082377,-81052.903688
273.976243,14508.036463,3108.864956,-78294.959896
273.978799,17172.777854,-3404.947333,-77835.302597
273.981356,10510.924376,-888.247130,-77222.426198
273.983912,2368.659014,-1776.494261,-77528.864398
273.986469,5477.523971,-2664.741391,-76762.768900
273.989025,-296.082377,-1776.494261,-78907.836294
273.991582,7105.977043,5477.523971,-78754.617194
273.994139,-740.205942,-2516.700203,-80593.246390
273.996695,-16876.695478,-2368.659014,-75537.016103
273.999252,-15544.324782,592.164754,-76915.987999
274.001808,-2960.823768,-444.123565,-77682.083497
274.004365,3849.070898,-1628.453072,-78448.178995
274.006922,888.247130,1776.494261,-78754.617194
274.009478,5625.565159,-740.205942,-78294.959896
274.012035,-10510.924376,-1628.453072,-77069.207099
274.014591,-22798.343014,1628.453072,-75537.016103
274.017148,6365.771101,-888.247130,-77069.207099
274.019705,2516.700203,-4145.153275,-77835.302597
274.022261,-8734.430116,3997.112087,-79673.931792
274.024818,-9474.636058,1184.329507,-77375.645298
274.027374,-7254.018232,-3404.947333,-79367.493593
274.029931,-22650.301825,-444.123565,-77988.521696
274.032488,-12731.542202,2812.782580,-76456.330700
274.035044,-2516.700203,-3256.906145,-78294.959896
274.037601,-1332.370696,-2516.700203,-77835.302597
274.040157,-148.041188,1628.453072,-78141.740796
274.042714,-3256.906145,-5329.482782,-76915.987999
274.045270,-8882.471304,0.000000,-76762.768900
274.047827,2664.741391,2812.782580,-76762.768900
274.050384,20133.601622,-2368.659014,-79061.055394
274.052940,19097.313304,-3552.988522,-79520.712692
274.055497,5033.400406,740.205942,-77835.302597
274.058053,3552.988522,-1776.494261,-77528.864398
274.060610,-6217.729913,-1332.370696,-77375.645298
274.063174,-296.082377,444.123565,-79061.055394
274.065737,9770.718434,148.041188,-79520.712692
274.068301,13767.830521,-2960.823768,-78294.959896
274.070864,3108.864956,-3997.112087,-77528.864398
274.073428,-10362.883188,2516.700203,-75843.454302
274.075992,7550.100608,-4145.153275,-78141.740796
274.078555,-296.082377,1036.288319,-77528.864398
274.081119,19245.354492,2516.700203,-77375.645298
274.083682,17320.819043,-4441.235652,-78754.617194
274.086246,4145.153275,740.205942,-75537.016103
274.088810,-148.041188,-1924.535449,-76303.111601
274.091373,6809.894666,-3552.988522,-77988.521696
274.093937,4293.194464,-740.205942,-77988.521696
274.096500,-10362.883188,4441.235652,-77528.864398
274.099064,-8586.388927,-5477.523971,-79061.055394
274.101628,-18505.148550,-3701.029710,-76609.549800
274.104191,-6069.688724,1628.453072,-76915.987999
274.106755,3256.906145,-444.123565,-79061.055394
274.109319,-444.123565,-3552.988522,-79980.369991
274.111882,-3701.029710,2960.823768,-77528.864398
274.114446,-13027.624579,888.247130,-77375.645298
274.117009,-9918.759623,-2960.823768,-77222.426198
274.119573,-1036.288319,740.205942,-76609.549800
274.122137,1776.494261,1184.329507,-78294.959896
274.124700,8882.471304,-3108.864956,-79367.493593
274.127264,-9918.759623,-1036.288319,-78141.740796
274.129827,-3849.070898,-740.205942,-76149.892501
274.132391,-15988.448347,-3849.070898,-78141.740796
274.134955,-18061.024985,2960.823768,-77375.645298
274.137518,-5181.441594,3256.906145,-77222.426198
274.140082,6957.935855,-4293.194464,-77835.302597
274.142645,-3997.112087,-1776.494261,-77528.864398
274.145209,-8290.306550,444.123565,-78448.178995
274.147773,-888.247130,-3404.947333,-78141.740796
274.150336,3256.906145,1924.535449,-77222.426198
274.152900,15544.324782,1332.370696,-78448.178995
274.155463,20429.683999,-5625.565159,-78907.836294
274.158027,6957.935855,-2516.700203,-76915.987999
274.160591,-8586.388927,2368.659014,-76149.892501
274.163154,-5773.606348,-1628.453072,-79061.055394
274.165724,6365.771101,-3552.988522,-78294.959896
274.168293,4145.153275,2368.659014,-77528.864398
274.170862,14804.118840,-1036.288319,-78754.617194
274.173432,1332.370696,-6217.729913,-77835.302597
274.176001,-1332.370696,740.205942,-75537.016103
274.178570,4737.318029,-1332.370696,-78601.398095
274.181139,12879.583391,-1628.453072,-79061.055394
274.183709,13175.665768,-592.164754,-78294.959896
274.186278,14359.995275,1628.453072,-76456.330700
274.188847,7698.141797,-4885.359217,-77682.083497
274.191417,-2960.823768,148.041188,-77682.083497
274.193986,6513.812290,296.082377,-78294.959896
274.196555,4885.359217,-296.082377,-79980.369991
274.199125,-14063.912898,-1628.453072,-78754.617194
274.201694,-18061.024985,0.000000,-76456.330700
274.204263,-5033.400406,-4737.318029,-76609.549800
274.206833,1332.370696,-1628.453072,-79367.493593
274.209402,-2516.700203,740.205942,-78754.617194
274.211971,4293.194464,-444.123565,-78294.959896
274.214541,-9622.677246,-2812.782580,-77222.426198
274.217110,-22502.260637,1036.288319,-76149.892501
274.219679,-1184.329507,-740.205942,-77069.207099
274.222249,5773.606348,-3997.112087,-77988.521696
274.224818,-4441.235652,3849.070898,-78448.178995
274.227387,2220.617826,740.205942,-76609.549800
274.229956,-6513.812290,-4589.276840,-80286.808190
274.232526,-18209.066173,-1332.370696,-79827.150892
274.235095,-19689.478057,1924.535449,-78907.836294
274.237664,592.164754,-3552.988522,-77835.302597
274.240234,-1776.494261,-3256.906145,-77069.207099
274.242803,0.000000,2812.782580,-78601.398095
274.245372,-4589.276840,-5625.565159,-80286.808190
274.247942,-7105.977043,-2368.659014,-75230.577904
274.250511,740.205942,3701.029710,-78294.959896
274.253080,21910.095883,888.247130,-78754.617194
274.255650,18949.272115,-4589.276840,-78754.617194
274.258219,6661.853478,148.041188,-76609.549800
274.260788,1184.329507,-592.164754,-76762.768900
274.263358,-3256.906145,-2812.782580,-76609.549800
274.265927,-11991.336260,1776.494261,-77835.302597
274.268500,18357.107362,-592.164754,-79214.274493
274.271073,10214.842000,-2368.659014,-78141.740796
274.273646,1332.370696,-3404.947333,-74617.701505
274.276219,-7994.224174,1036.288319,-75843.454302
274.278792,5625.565159,-3849.070898,-78754.617194
274.281365,5033.400406,296.082377,-78907.836294
274.283938,16432.571912,3552.988522,-77222.426198
274.286511,19837.519246,-3552.988522,-77528.864398
274.289084,1628.453072,-2220.617826,-76915.987999
274.291657,-1628.453072,-740.205942,-79214.274493
274.294230,6809.894666,-3552.988522,-79980.369991
274.296803,296.082377,-1036.288319,-79520.712692
274.299376,-16136.489536,2368.659014,-76609.549800
274.301949,-12879.583391,-3701.029710,-76456.330700
274.304522,-7994.224174,-6069.688724,-76149.892501
274.307094,-7254.018232,3997.112087,-77528.864398
274.309667,3701.029710,-592.164754,-80746.465489
274.312240,2960.823768,-2220.617826,-78294.959896
274.314813,-3404.947333,148.041188,-77222.426198
274.317386,-11547.212695,3108.864956,-76456.330700
274.319959,-4145.153275,-3849.070898,-77988.521696
274.322532,-148.041188,740.205942,-79367.493593
274.325105,-296.082377,2812.782580,-79061.055394
274.327678,888.247130,-5181.441594,-76915.987999
274.330251,-9770.718434,-148.041188,-75690.235202
274.332824,-14656.077652,-1184.329507,-78448.178995
274.335397,-13619.789333,-740.205942,-78294.959896
274.337970,-11251.130318,-148.041188,-77222.426198
274.340543,296.082377,2368.659014,-79214.274493
274.343116,5033.400406,-740.205942,-79061.055394
274.345689,-9770.718434,-4145.153275,-76609.549800
274.348262,-4885.359217,-296.082377,-76456.330700
274.350835,10362.883188,1480.411884,-77682.083497
274.353408,14952.160028,-2664.741391,-79061.055394
274.355981,13323.706956,3108.864956,-78294.959896
274.358554,16876.695478,-4589.276840,-78448.178995
274.361127,-5921.647536,-2960.823768,-75996.673402
274.363700,-10362.883188,2812.782580,-76303.111601
274.366273,-1924.535449,-1184.329507,-78907.836294
274.368846,14359.995275,-2220.617826,-77988.521696
274.371422,4145.153275,1184.329507,-77069.207099
274.373998,296.082377,0.000000,-77988.521696
274.376575,1776.494261,-6217.729913,-76762.768900
274.379151,-2368.659014,3108.864956,-75996.673402
274.381727,10510.924376,740.205942,-79520.712692
274.384304,19393.395680,-1036.288319,-79061.055394
274.386880,9474.636058,148.041188,-76149.892501
274.389456,2960.823768,-296.082377,-76609.549800
274.392033,4293.194464,-6069.688724,-78601.398095
274.394609,1628.453072,-444.123565,-77835.302597
274.397185,-1776.494261,4293.194464,-78754.617194
274.399761,-9622.677246,-2072.576638,-79980.369991
274.402338,-18505.148550,-1776.494261,-76303.111601
274.404914,-10362.883188,-888.247130,-76609.549800
274.407490,2516.700203,-1184.329507,-76456.330700
274.410067,3701.029710,-2220.617826,-77988.521696
274.412643,-5921.647536,1332.370696,-77222.426198
274.415219,-1036.288319,-1480.411884,-77069.207099
274.417796,-10658.965565,-3701.029710,-76609.549800
274.420372,-13175.665768,3256.906145,-77528.864398
274.422948,7254.018232,-888.247130,-80593.246390
274.425524,8438.347739,-3997.112087,-78141.740796
274.428101,-7254.018232,1924.535449,-76456.330700
274.430677,-8438.347739,888.247130,-75843.454302
274.433253,-13619.789333,-4589.276840,-78141.740796
274.435830,-18801.230927,-740.205942,-79214.274493
274.438406,-3849.070898,3849.070898,-76762.768900
274.440982,7402.059420,-5329.482782,-78141.740796
274.443558,-3552.988522,-1776.494261,-76303.111601
274.446135,-7846.182985,148.041188,-78294.959896
274.448711,2368.659014,-4145.153275,-77988.521696
274.451287,3256.906145,740.205942,-76762.768900
274.453864,14063.912898,3108.864956,-78601.398095
274.456440,18505.148550,-3256.906145,-80440.027290
274.459016,6809.894666,-5033.400406,-76762.768900
274.461593,-9326.594869,2664.741391,-74311.263306
274.464169,3997.112087,-1628.453072,-78141.740796
274.466745,6661.853478,-2072.576638,-79980.369991
274.469321,888.247130,1924.535449,-80286.808190
274.471898,11251.130318,-1332.370696,-77375.645298
274.474476,1036.288319,-4293.194464,-79214.274493
274.477054,-10807.006753,-296.082377,-74617.701505
274.479632,9770.718434,-592.164754,-76456.330700
274.482210,18061.024985,-1480.411884,-79520.712692
274.484788,12583.501014,3404.947333,-79827.150892
274.487366,8142.265362,-592.164754,-77375.645298
274.489944,8438.347739,-6069.688724,-76609.549800
274.492522,-4441.235652,-148.041188,-75690.235202
274.495100,8438.347739,1036.288319,-79520.712692
274.497678,-9326.594869,-1776.494261,-80746.465489
274.500256,-17912.983796,-2072.576638,-76149.892501
274.502834,-15396.283594,-1628.453072,-78141.740796
274.505412,2072.576638,-1332.370696,-78448.178995
274.507990,-3997.112087,-1628.453072,-78754.617194
274.510568,1628.453072,2664.741391,-77835.302597
274.513145,5033.400406,-6069.688724,-78907.836294
274.515723,-17024.736666,1332.370696,-76609.549800
274.518301,-10066.800811,-148.041188,-77682.083497
274.520879,3701.029710,2516.700203,-81052.903688
274.523457,296.082377,-1776.494261,-77988.521696
274.526035,592.164754,148.041188,-75843.454302
274.528613,-7105.977043,-888.247130,-76456.330700
274.531191,-13915.871710,-4293.194464,-79214.274493
274.533769,-23982.672521,2220.617826,-77988.521696
274.536347,-3256.906145,148.041188,-78601.398095
274.538925,3404.947333,-1924.535449,-75843.454302
274.541503,-740.205942,2220.617826,-77528.864398
274.544081,-8438.347739,592.164754,-77222.426198
274.546659,1628.453072,-4589.276840,-77222.426198
274.549237,2664.741391,1628.453072,-77682.083497
274.551815,16284.530724,3701.029710,-77682.083497
274.554393,21317.931130,-6513.812290,-80286.808190
274.556971,7105.977043,-1332.370696,-77375.645298
274.559549,-3552.988522,1628.453072,-76915.987999
274.562127,-2664.741391,-1628.453072,-76149.892501
274.564705,-2072.576638,-1036.288319,-78141.740796
274.567283,10066.800811,1628.453072,-77069.207099
274.569861,7402.059420,296.082377,-77835.302597
274.572439,1184.329507,-3997.112087,-78907.836294
274.575017,-9474.636058,0.000000,-74924.139704
274.577596,7698.141797,-3997.112087,-77988.521696
274.580176,12879.583391,1036.288319,-77375.645298
274.582755,12139.377449,2812.782580,-80133.589091
274.585335,20281.642811,-1480.411884,-78448.178995
274.587914,5625.565159,-4589.276840,-78601.398095
274.590493,-3256.906145,-1480.411884,-77835.302597
274.593073,0.000000,2072.576638,-78141.740796
274.595652,-4737.318029,-1036.288319,-78601.398095
274.598231,-20281.642811,-444.123565,-76915.987999
274.600811,-10510.924376,-1924.535449,-77682.083497
274.603390,592.164754,-4145.153275,-77375.645298
274.605970,-3849.070898,1628.453072,-76456.330700
274.608549,1628.453072,1332.370696,-78448.178995
274.611128,4589.276840,-5773.606348,-78448.178995
274.613708,-17024.736666,-1184.329507,-75843.454302
274.616287,-6217.729913,-592.164754,-76456.330700
274.618866,-592.164754,1628.453072,-79367.493593
274.621446,9178.553681,-2368.659014,-79673.931792
274.624025,-10510.924376,1036.288319,-75843.454302
274.626604,-5181.441594,888.247130,-76303.111601
274.629184,-15248.242405,-3997.112087,-78601.398095
274.631763,-21910.095883,-444.123565,-77835.302597
274.634343,-5329.482782,1036.288319,-78601.398095
274.636922,9474.636058,444.123565,-77835.302597
274.639501,-6069.688724,-3404.947333,-77835.302597
274.642081,-9178.553681,1776.494261,-77222.426198
274.644660,5773.606348,-4589.276840,-78141.740796
274.647239,7254.018232,444.123565,-78141.740796
274.649819,13323.706956,4145.153275,-78448.178995
274.652398,19837.519246,-5625.565159,-79827.150892
274.654978,2516.700203,-2812.782580,-76609.549800
274.657557,-5181.441594,1480.411884,-76609.549800
274.660136,888.247130,296.082377,-76303.111601
274.662716,4885.359217,-5181.441594,-78907.836294
274.665295,10807.006753,1036.288319,-78601.398095
274.667874,5773.606348,1480.411884,-77835.302597
274.670454,-3108.864956,-2812.782580,-75843.454302
274.673033,-3108.864956,-740.205942,-74311.263306
274.675612,9474.636058,-740.205942,-79214.274493
274.678192,16136.489536,-1036.288319,-78448.178995
274.680771,13767.830521,-1332.370696,-78448.178995
274.683351,7402.059420,1480.411884,-76915.987999
274.685931,6809.894666,-7550.100608,-77528.864398
274.688512,-1332.370696,-148.041188,-77988.521696
274.691092,-4293.194464,4145.153275,-78294.959896
274.693673,-12435.459826,-1628.453072,-79214.274493
274.696253,-17468.860231,-2072.576638,-76762.768900
274.698834,-8734.430116,-1628.453072,-76915.987999
274.701414,5773.606348,-888.247130,-78601.398095
274.703994,3404.947333,-1776.494261,-79673.931792
274.706575,-4885.359217,2072.576638,-78141.740796
274.709155,-12287.418637,-888.247130,-78141.740796
274.711736,-11547.212695,-3404.947333,-77222.426198
274.714316,-6513.812290,888.247130,-77835.302597
274.716897,4737.318029,-1332.370696,-79367.493593
274.719477,-1332.370696,-1628.453072,-79980.369991
274.722057,-11843.295072,2664.741391,-76456.330700
274.724638,-15248.242405,296.082377,-77375.645298
274.727218,-14656.077652,-3701.029710,-78907.836294
274.729799,-13323.706956,-148.041188,-75996.673402
274.732379,1184.329507,2072.576638,-76762.768900
274.734959,6513.812290,-1480.411884,-78907.836294
274.737540,-11251.130318,-1924.535449,-79061.055394
274.740120,-3701.029710,592.164754,-76456.330700
274.742701,7994.224174,-5477.523971,-77528.864398
274.745281,11103.089130,2072.576638,-77069.207099
274.747862,10214.842000,2368.659014,-78601.398095
274.750442,16432.571912,-3849.070898,-79520.712692
274.753022,-2516.700203,-4589.276840,-77222.426198
274.755603,-9474.636058,4441.235652,-75383.797003
274.758183,-148.041188,-3108.864956,-78601.398095
274.760764,4145.153275,-2368.659014,-79061.055394
274.763344,15988.448347,1184.329507,-77682.083497
274.765925,2812.782580,-2368.659014,-79827.150892
274.768505,2812.782580,-1628.453072,-77835.302597
274.771085,296.082377,1776.494261,-76149.892501
274.773666,12287.418637,148.041188,-80593.246390
274.776246,21762.054695,-296.082377,-80593.246390
274.778827,4737.318029,444.123565,-76149.892501
274.781407,7698.141797,-1776.494261,-75537.016103
274.783988,4885.359217,-6513.812290,-78294.959896
274.786568,-2812.782580,3997.112087,-79214.274493
274.789148,-13323.706956,2072.576638,-79673.931792
274.791729,-13027.624579,-2812.782580,-76456.330700
274.794309,-14656.077652,-5181.441594,-77375.645298
274.796890,-296.082377,2664.741391,-76303.111601
274.799470,3404.947333,-2516.700203,-80133.589091
274.802051,-148.041188,-1480.411884,-78754.617194
274.804631,-9770.718434,888.247130,-78448.178995
274.807212,-13323.706956,-3701.029710,-75230.577904
274.809792,-9326.594869,-444.123565,-75843.454302
274.812373,3997.112087,148.041188,-78141.740796
274.814953,-148.041188,-2960.823768,-80746.465489
274.817533,-592.164754,-296.082377,-76915.987999
274.820114,-21465.972318,-888.247130,-77375.645298
274.822694,-11399.171507,-888.247130,-78448.178995
274.825275,-13619.789333,-3997.112087,-78448.178995
274.827855,-3997.112087,2368.659014,-78294.959896
274.830436,9326.594869,2664.741391,-78448.178995
274.833016,-1036.288319,-3404.947333,-79673.931792
274.835597,-12139.377449,740.205942,-77528.864398
274.838177,3997.112087,-2664.741391,-77222.426198
274.840757,19837.519246,-2072.576638,-77682.083497
274.843338,11991.336260,148.041188,-76609.549800
274.845918,15248.242405,-592.164754,-79673.931792
274.848499,3701.029710,-4885.359217,-78601.398095
274.851079,-6069.688724,148.041188,-76303.111601
274.853660,-6661.853478,4441.235652,-76762.768900
274.856240,12731.542202,-4293.194464,-79061.055394
274.858821,6069.688724,-2516.700203,-78754.617194
274.861401,-6809.894666,5773.606348,-76456.330700
274.863981,296.082377,-5625.565159,-76609.549800
274.866562,3701.029710,-2960.823768,-76762.768900
274.869142,4885.359217,888.247130,-78907.836294
274.871723,23982.672521,1924.535449,-80440.027290
274.874303,17764.942608,-3404.947333,-79827.150892
274.876884,3404.947333,2812.782580,-75383.797003
274.879464,5477.523971,-5773.606348,-76609.549800
274.882045,-148.041188,-1628.453072,-79214.274493
274.884625,-18653.189738,3256.906145,-77528.864398
274.887206,-14656.077652,592.164754,-78448.178995
274.889786,-4737.318029,-5329.482782,-78141.740796
274.892367,-3256.906145,-1036.288319,-76303.111601
274.894947,3552.988522,1036.288319,-76456.330700
274.897528,-148.041188,-3256.906145,-79061.055394
274.900109,-13027.624579,148.041188,-76762.768900
274.902689,-9326.594869,592.164754,-75843.454302
274.905270,-6809.894666,-3256.906145,-76915.987999
274.907850,-6217.729913,-444.123565,-78294.959896
274.910431,3256.906145,1480.411884,-79214.274493
274.913012,-888.247130,-3849.070898,-78448.178995
274.915592,-13323.706956,-1480.411884,-77222.426198
274.918173,-22946.384202,1628.453072,-77682.083497
274.920754,-6661.853478,-4293.194464,-78754.617194
274.923334,-6661.853478,-2960.823768,-78448.178995
274.925915,5477.523971,5181.441594,-77375.645298
274.928495,-2812.782580,148.041188,-77375.645298
274.931076,-2812.782580,-6217.729913,-77988.521696
274.933657,888.247130,1924.535449,-76915.987999
274.936237,19837.519246,2368.659014,-77222.426198
274.938818,19245.354492,-1332.370696,-77528.864398
274.941398,6513.812290,-1184.329507,-78601.398095
274.943979,6365.771101,-1776.494261,-77069.207099
274.946560,0.000000,-2220.617826,-76609.549800
274.949140,-10955.047942,2960.823768,-77222.426198
274.951721,11399.171507,2368.659014,-79214.274493
274.954301,13471.748144,-5625.565159,-81512.560987
274.956882,-2516.700203,1036.288319,-76609.549800
274.959463,1480.411884,740.205942,-76915.987999
274.962043,6365.771101,-3849.070898,-77222.426198
274.964624,7846.182985,-3552.988522,-79061.055394
274.967204,17616.901420,5625.565159,-78141.740796
274.969785,15988.448347,-3849.070898,-78601.398095
274.972366,4293.194464,-1628.453072,-74924.139704
274.974946,-1628.453072,592.164754,-75537.016103
274.977527,-2368.659014,-592.164754,-79673.931792
274.980107,-18209.066173,-296.082377,-79520.712692
274.982688,-20725.766376,2368.659014,-77682.083497
274.985269,-2812.782580,-5477.523971,-77835.302597
274.987849,3552.988522,-2664.741391,-77528.864398
274.990397,-3552.988522,2516.700203,-79214.274493
274.992945,3404.947333,592.164754,-80593.246390
274.995493,-15692.365970,-2960.823768,-77988.521696
274.998041,-15396.283594,296.082377,-75537.016103
275.000588,2664.741391,-444.123565,-77988.521696
275.003136,4589.276840,-1628.453072,-77682.083497
275.005684,-3552.988522,-1332.370696,-77988.521696
275.008232,-3849.070898,1924.535449,-75843.454302
275.010780,-12731.542202,-4737.318029,-77222.426198
275.013328,-23094.425390,296.082377,-76915.987999
275.015875,-7994.224174,888.247130,-77375.645298
275.018423,4145.153275,-3108.864956,-78601.398095
275.020971,-148.041188,-3404.947333,-77528.864398
275.023519,-7994.224174,2812.782580,-78141.740796
275.026067,3404.947333,-4885.359217,-77682.083497
275.028615,6365.771101,-2220.617826,-77375.645298
275.031163,16432.571912,3849.070898,-76609.549800
275.033710,19837.519246,-1036.288319,-79367.493593
275.036258,6809.894666,-6217.729913,-77375.645298
275.038806,-9030.512492,296.082377,-75077.358804
275.041354,1480.411884,1924.535449,-76609.549800
275.043902,4885.359217,-3108.864956,-78448.178995
275.046450,17172.777854,-3552.988522,-78754.617194
275.048997,-1480.411884,1184.329507,-80593.246390
275.051545,8142.265362,-1924.535449,-79214.274493
275.054093,-5625.565159,-2960.823768,-77375.645298
275.056641,8734.430116,1184.329507,-76915.987999
275.059189,19097.313304,-4589.276840,-78294.959896
275.061737,11547.212695,-1924.535449,-79520.712692
275.064284,8586.388927,2220.617826,-78294.959896
275.066832,6513.812290,-1924.535449,-77835.302597
275.069380,-1332.370696,-2812.782580,-79367.493593
275.071928,-23686.590144,2960.823768,-76456.330700
275.074476,-11695.253884,-592.164754,-76762.768900
275.077024,-7550.100608,-5329.482782,-76915.987999
275.079571,-1924.535449,148.041188,-78294.959896
275.082119,7550.100608,296.082377,-78294.959896
275.084667,2516.700203,-3108.864956,-78141.740796
275.087215,-6365.771101,1332.370696,-76762.768900
275.089763,-11991.336260,2072.576638,-76303.111601
275.092317,-5181.441594,-3997.112087,-75537.016103
275.094870,5921.647536,-1924.535449,-78601.398095
275.097424,-2960.823768,0.000000,-81972.218286
275.099978,3849.070898,592.164754,-74464.482406
275.102532,-21910.095883,-2812.782580,-75843.454302
275.105086,-18061.024985,1036.288319,-77988.521696
275.107640,-10658.965565,-2812.782580,-78907.836294
275.110194,-2368.659014,-740.205942,-77835.302597
275.112747,-740.205942,1628.453072,-78601.398095
275.115301,-2516.700203,-592.164754,-77528.864398
275.117855,-1776.494261,-6217.729913,-77528.864398
275.120409,1776.494261,3552.988522,-76915.987999
275.122963,23242.466579,-444.123565,-77682.083497
275.125517,16580.613101,-1628.453072,-79367.493593
275.128071,3997.112087,-296.082377,-78448.178995
275.130624,592.164754,-2220.617826,-78141.740796
275.133178,-4737.318029,888.247130,-77069.207099
275.135732,2516.700203,-1184.329507,-79061.055394
275.138286,8290.306550,148.041188,-78754.617194
275.140840,11103.089130,-3404.947333,-76915.987999
275.143394,-7254.018232,296.082377,-77682.083497
275.145948,-888.247130,1480.411884,-78141.740796
275.148501,9770.718434,-3997.112087,-78601.398095
275.151055,15100.201217,888.247130,-74770.920605
275.153609,17764.942608,-1036.288319,-79520.712692
275.156163,14952.160028,-2516.700203,-74924.139704
275.158717,2664.741391,-5181.441594,-77528.864398
275.161271,-7698.141797,2664.741391,-78448.178995
275.163825,-15840.407159,-296.082377,-79827.150892
275.166378,-18505.148550,-1036.288319,-76149.892501
275.168932,-11399.171507,0.000000,-77375.645298
275.171486,8734.430116,-3701.029710,-78294.959896
275.174045,-888.247130,-1628.453072,-77835.302597
275.176604,-592.164754,2812.782580,-79367.493593
275.179163,-2664.741391,-740.205942,-78448.178995
275.181721,-14508.036463,148.041188,-74924.139704
275.184280,-2960.823768,-888.247130,-77528.864398
275.186839,3849.070898,-1332.370696,-79520.712692
275.189398,2664.741391,-3108.864956,-77528.864398
275.191957,-13027.624579,444.123565,-76762.768900
275.194516,-12583.501014,1184.329507,-75843.454302
275.197074,-20133.601622,-3701.029710,-78448.178995
275.199633,-15248.242405,-2812.782580,-77375.645298
275.202192,4737.318029,2812.782580,-78294.959896
275.204751,7846.182985,-1924.535449,-77682.083497
275.207310,-10066.800811,0.000000,-77528.864398
275.209869,-2664.741391,0.000000,-77988.521696
275.212428,12879.583391,-2812.782580,-78141.740796
275.214986,14952.160028,-1184.329507,-77682.083497
275.217545,13915.871710,4145.153275,-77988.521696
275.220104,13323.706956,-6809.894666,-79214.274493
275.222663,888.247130,-4293.194464,-76762.768900
275.225222,-15692.365970,5181.441594,-76609.549800
275.227781,8586.388927,-2220.617826,-79367.493593
275.230339,11103.089130,-3849.070898,-77528.864398
275.232898,-592.164754,888.247130,-76762.768900
275.235457,740.205942,-1776.494261,-77835.302597
275.238016,5033.400406,-1776.494261,-77528.864398
275.240575,2072.576638,1480.411884,-77222.426198
275.243134,22058.137072,148.041188,-79367.493593
275.245692,17912.983796,-4293.194464,-77682.083497
275.248251,5477.523971,-2072.576638,-75537.016103
275.250810,4589.276840,-444.123565,-78141.740796
275.253369,-3256.906145,-1628.453072,-77835.302597
275.255928,-27091.537477,-1184.329507,-78294.959896
275.258487,-16432.571912,1480.411884,-77069.207099
275.261046,-3849.070898,-5477.523971,-77988.521696
275.263604,-148.041188,-592.164754,-76303.111601
275.266163,3997.112087,148.041188,-79061.055394
275.268722,-2664.741391,-1480.411884,-78754.617194
275.271281,-10362.883188,-3849.070898,-76609.549800
275.273840,-19837.519246,3256.906145,-75843.454302
275.276402,5921.647536,-2812.782580,-78448.178995
275.278964,1776.494261,-2960.823768,-80746.465489
275.281527,-6069.688724,2072.576638,-76762.768900
275.284089,-1776.494261,-2368.659014,-77528.864398
275.286651,-17616.901420,-3108.864956,-76303.111601
275.289214,-23242.466579,1036.288319,-79980.369991
275.291776,-4737.318029,296.082377,-78294.959896
275.294338,9622.677246,-2812.782580,-79061.055394
275.296901,-4589.276840,740.205942,-77375.645298
275.299463,-1924.535449,-296.082377,-77069.207099
275.302025,3701.029710,-5477.523971,-77222.426198
275.304588,8438.347739,1776.494261,-76149.892501
275.307150,19541.436869,3404.947333,-76762.768900
275.309712,15988.448347,-3849.070898,-78601.398095
275.312275,0.000000,-3404.947333,-77835.302597
275.314837,-10955.047942,3701.029710,-76149.892501
275.317400,740.205942,-1332.370696,-77988.521696
275.319962,5033.400406,-3108.864956,-77835.302597
275.322524,7254.018232,296.082377,-79214.274493
275.325087,3701.029710,-1184.329507,-76915.987999
275.327649,-3701.029710,-3108.864956,-76456.330700
275.330211,4145.153275,2516.700203,-76762.768900
275.332774,15840.407159,-3701.029710,-79673.931792
275.335336,12139.377449,-4589.276840,-77375.645298
275.337898,8290.306550,1480.411884,-76915.987999
275.340461,10066.800811,-3108.864956,-78141.740796
275.343023,4145.153275,-2812.782580,-77528.864398
275.345585,-23094.425390,3701.029710,-77835.302597
275.348148,-18357.107362,-888.247130,-78294.959896
275.350710,-12139.377449,-3404.947333,-77222.426198
