#time,accel_x,accel_y,accel_z
401.700912,-4589.276840,1332.370696,-77835.302597
401.703471,6217.729913,2220.617826,-78141.740796
401.706031,2664.741391,-3997.112087,-78907.836294
401.708591,-3404.947333,2072.576638,-77528.864398
401.711151,4589.276840,740.205942,-77682.083497
401.713711,2516.700203,-3552.988522,-77988.521696
401.716271,-3256.906145,1924.535449,-76609.549800
401.718830,-740.205942,1480.411884,-76762.768900
401.721390,1036.288319,-3701.029710,-76456.330700
401.723950,-4145.153275,-2072.576638,-76915.987999
401.726510,-148.041188,1924.535449,-77069.207099
401.729070,1776.494261,-3256.906145,-78294.959896
401.731629,-5181.441594,-2072.576638,-76149.892501
401.734189,2072.576638,1036.288319,-76762.768900
401.736749,2072.576638,-2960.823768,-78601.398095
401.739309,592.164754,1184.329507,-75843.454302
401.741869,-2516.700203,-1036.288319,-78907.836294
401.744428,2960.823768,0.000000,-77835.302597
401.746988,1628.453072,-6513.812290,-78907.836294
401.749548,-2516.700203,-592.164754,-76456.330700
401.752108,5625.565159,-5625.565159,-80133.589091
401.754668,2664.741391,-6217.729913,-76456.330700
401.757228,-3256.906145,-7550.100608,-77835.302597
401.759787,-1332.370696,-9326.594869,-79520.712692
401.762347,3108.864956,-5329.482782,-74311.263306
401.764907,-2516.700203,592.164754,-76762.768900
401.767467,148.041188,-1628.453072,-78294.959896
401.770027,740.205942,-3701.029710,-79673.931792
401.772586,-5181.441594,-1628.453072,-75996.673402
401.775146,0.000000,-148.041188,-77682.083497
401.777652,4737.318029,148.041188,-79520.712692
401.780206,-3256.906145,4145.153275,-77835.302597
401.782759,-2812.782580,4589.276840,-78754.617194
401.785313,3701.029710,1628.453072,-77222.426198
401.787867,-3256.906145,3256.906145,-75843.454302
401.790421,-2812.782580,2368.659014,-79061.055394
401.792975,2072.576638,-2368.659014,-78754.617194
401.795528,-3256.906145,0.000000,-76456.330700
401.798082,-2220.617826,2368.659014,-78448.178995
401.800636,4589.276840,2516.700203,-78141.740796
401.803190,2220.617826,1776.494261,-77528.864398
401.805744,-1776.494261,4589.276840,-76609.549800
401.808297,4441.235652,7254.018232,-78601.398095
401.810851,2960.823768,-2220.617826,-79520.712692
401.813405,-2516.700203,2664.741391,-78448.178995
401.815959,5181.441594,-7254.018232,-79214.274493
401.818513,1184.329507,-3849.070898,-77375.645298
401.821066,-2516.700203,5033.400406,-75690.235202
401.823620,-592.164754,3552.988522,-77222.426198
401.826174,1184.329507,4293.194464,-77988.521696
401.828728,-4589.276840,4737.318029,-77069.207099
401.831282,-1332.370696,4293.194464,-77375.645298
401.833835,2072.576638,-1480.411884,-77069.207099
401.836389,-5921.647536,296.082377,-76149.892501
401.838943,-148.041188,-1184.329507,-78907.836294
401.841497,3997.112087,-2516.700203,-79367.493593
401.844051,1332.370696,-1184.329507,-78448.178995
401.846604,-2220.617826,3849.070898,-78141.740796
401.849158,6365.771101,6217.729913,-77375.645298
401.851712,592.164754,6661.853478,-77835.302597
401.854266,-2220.617826,5477.523971,-78601.398095
401.856820,5181.441594,444.123565,-78601.398095
401.859373,-1332.370696,-148.041188,-77069.207099
401.861927,-1036.288319,-1480.411884,-76762.768900
401.864481,-888.247130,-6809.894666,-77375.645298
401.867035,2072.576638,-11251.130318,-77375.645298
401.869589,-3701.029710,-5921.647536,-76609.549800
401.872143,148.041188,-6809.894666,-79367.493593
401.874696,296.082377,1332.370696,-76609.549800
401.877250,-7105.977043,-888.247130,-76915.987999
401.879797,2072.576638,444.123565,-76149.892501
401.882344,2516.700203,-4885.359217,-77682.083497
401.884891,-1776.494261,-1628.453072,-77375.645298
401.887438,-1628.453072,-5477.523971,-77988.521696
401.889985,4589.276840,-8438.347739,-80133.589091
401.892532,-3404.947333,-3404.947333,-77835.302597
401.895079,-2072.576638,-2516.700203,-77682.083497
401.897626,2516.700203,-8290.306550,-77988.521696
401.900173,-444.123565,3256.906145,-76762.768900
401.902720,-1776.494261,-1036.288319,-80286.808190
401.905267,4589.276840,-8882.471304,-78754.617194
401.907814,-1628.453072,4293.194464,-78448.178995
401.910361,-3256.906145,-7846.182985,-79214.274493
401.912908,3256.906145,3701.029710,-77988.521696
401.915455,2072.576638,-3552.988522,-76303.111601
401.918002,-3997.112087,-3108.864956,-77069.207099
401.920549,5033.400406,296.082377,-79980.369991
401.923096,148.041188,-7402.059420,-77988.521696
401.925643,-2664.741391,-1628.453072,-75077.358804
401.928189,1776.494261,-11399.171507,-79367.493593
401.930736,3849.070898,-3256.906145,-75383.797003
401.933283,-5329.482782,-7994.224174,-77375.645298
401.935830,-1184.329507,2812.782580,-77222.426198
401.938377,1036.288319,-4145.153275,-77528.864398
401.940924,-4145.153275,-592.164754,-75077.358804
401.943471,-1776.494261,-8142.265362,-78448.178995
401.946018,1184.329507,-5181.441594,-76762.768900
401.948565,-3997.112087,-8438.347739,-77835.302597
401.951112,-740.205942,-4737.318029,-77835.302597
401.953659,5033.400406,-8290.306550,-78907.836294
401.956206,2072.576638,-3108.864956,-76303.111601
401.958753,-4145.153275,3404.947333,-77528.864398
401.961300,6661.853478,3108.864956,-79367.493593
401.963847,-444.123565,6661.853478,-77988.521696
401.966394,-1776.494261,6957.935855,-78294.959896
401.968941,4589.276840,1332.370696,-77988.521696
401.971488,1184.329507,1480.411884,-77375.645298
401.974035,-1036.288319,2664.741391,-77988.521696
401.976582,-1184.329507,-148.041188,-77835.302597
401.979129,2368.659014,-1332.370696,-78294.959896
401.981673,-4145.153275,2368.659014,-76456.330700
401.984217,740.205942,2368.659014,-77375.645298
401.986761,148.041188,2072.576638,-77528.864398
401.989306,-4589.276840,4293.194464,-76303.111601
401.991850,1184.329507,2368.659014,-78448.178995
401.994394,1036.288319,3849.070898,-78141.740796
401.996938,-3997.112087,2812.782580,-77528.864398
401.999482,-1480.411884,3849.070898,-79673.931792
402.002027,2220.617826,-8734.430116,-78754.617194
402.004571,-3404.947333,3849.070898,-75230.577904
402.007115,-1480.411884,2516.700203,-78448.178995
402.009659,2812.782580,-1332.370696,-78601.398095
402.012203,-2072.576638,-3701.029710,-78601.398095
402.014748,-1036.288319,3849.070898,-77222.426198
402.017292,4737.318029,-444.123565,-78141.740796
402.019836,740.205942,6809.894666,-78141.740796
402.022380,-6365.771101,5773.606348,-77222.426198
402.024924,4737.318029,4737.318029,-77222.426198
402.027469,2812.782580,3701.029710,-79367.493593
402.030013,-1628.453072,2664.741391,-78141.740796
402.032557,3256.906145,1628.453072,-78141.740796
402.035101,1184.329507,-1628.453072,-76762.768900
402.037645,-4293.194464,1924.535449,-77069.207099
402.040190,3849.070898,-592.164754,-79520.712692
402.042734,1924.535449,3701.029710,-75383.797003
402.045278,-5181.441594,3997.112087,-77375.645298
402.047822,-888.247130,6661.853478,-77528.864398
402.050366,1628.453072,592.164754,-77988.521696
402.052910,-5181.441594,2516.700203,-76609.549800
402.055455,-1184.329507,-1776.494261,-77528.864398
402.057999,1184.329507,-9178.553681,-77375.645298
402.060543,-5329.482782,-9326.594869,-77528.864398
402.063087,-2960.823768,-5477.523971,-78141.740796
402.065631,4441.235652,-9474.636058,-79214.274493
402.068176,1332.370696,592.164754,-77988.521696
402.070720,-3997.112087,296.082377,-77988.521696
402.073264,5329.482782,1036.288319,-78294.959896
402.075808,1184.329507,-2368.659014,-78754.617194
402.078352,-1036.288319,-888.247130,-78294.959896
402.080897,5033.400406,-9178.553681,-78754.617194
402.083330,-888.247130,-6365.771101,-75996.673402
402.085763,-5181.441594,-5625.565159,-77375.645298
402.088195,888.247130,-2960.823768,-77069.207099
402.090628,3108.864956,-4737.318029,-76303.111601
402.093061,-3997.112087,-1628.453072,-77528.864398
402.095494,-888.247130,-5181.441594,-78601.398095
402.097927,1924.535449,2220.617826,-76762.768900
402.100360,-3997.112087,-1036.288319,-74924.139704
402.102793,-1184.329507,-12139.377449,-78294.959896
402.105226,2516.700203,6217.729913,-77528.864398
402.107659,-2516.700203,-2516.700203,-76149.892501
402.110092,-1036.288319,-3108.864956,-79214.274493
402.112525,4589.276840,-5773.606348,-79673.931792
402.114958,-3108.864956,-6513.812290,-75537.016103
402.117391,-1628.453072,-3108.864956,-77222.426198
402.119824,2664.741391,-9622.677246,-78448.178995
402.122257,-1776.494261,-1776.494261,-77682.083497
402.124690,296.082377,-5477.523971,-81052.903688
402.127123,3849.070898,-2664.741391,-78754.617194
402.129556,888.247130,-3256.906145,-77835.302597
402.131989,-3256.906145,-4145.153275,-77069.207099
402.134422,4885.359217,-5773.606348,-79214.274493
402.136855,1776.494261,-4441.235652,-78448.178995
402.139288,-4293.194464,-3108.864956,-78294.959896
402.141721,6957.935855,-6217.729913,-78601.398095
402.144154,888.247130,-3849.070898,-77835.302597
402.146587,-3849.070898,592.164754,-77835.302597
402.149019,-740.205942,5625.565159,-78448.178995
402.151452,3849.070898,5773.606348,-78601.398095
402.153885,2220.617826,5625.565159,-77682.083497
402.156318,-3404.947333,4885.359217,-77682.083497
402.158751,3849.070898,1480.411884,-78448.178995
402.161184,1332.370696,-592.164754,-78141.740796
402.163617,-2664.741391,1628.453072,-77988.521696
402.166050,5329.482782,-296.082377,-78907.836294
402.168483,1776.494261,888.247130,-77069.207099
402.170916,-6513.812290,3108.864956,-75843.454302
402.173349,-2220.617826,1332.370696,-78601.398095
402.175782,1924.535449,3108.864956,-77375.645298
402.178215,-5181.441594,4293.194464,-77222.426198
402.180682,-2220.617826,2072.576638,-77835.302597
402.183150,1924.535449,-3997.112087,-76456.330700
402.185617,-4145.153275,6661.853478,-75383.797003
402.188085,-1184.329507,-7846.182985,-80133.589091
402.190552,1480.411884,5329.482782,-77222.426198
402.193020,1332.370696,1776.494261,-78754.617194
402.195487,-2368.659014,-3404.947333,-79827.150892
402.197955,7254.018232,5329.482782,-75843.454302
402.200422,-1036.288319,2368.659014,-77835.302597
402.202890,-148.041188,9474.636058,-77528.864398
402.205357,3108.864956,-592.164754,-79827.150892
402.207825,296.082377,7254.018232,-76609.549800
402.210292,-2516.700203,592.164754,-79980.369991
402.212760,6661.853478,2812.782580,-79214.274493
402.215227,1924.535449,148.041188,-76456.330700
402.217695,-2220.617826,1628.453072,-77375.645298
402.220162,-1184.329507,-592.164754,-78601.398095
402.222630,2664.741391,3701.029710,-76915.987999
402.225097,-5477.523971,3997.112087,-77528.864398
402.227565,5181.441594,6809.894666,-77835.302597
402.230032,1184.329507,3552.988522,-78448.178995
402.232500,-3108.864956,5625.565159,-77682.083497
402.234967,-1184.329507,-444.123565,-78601.398095
402.237435,3552.988522,-9770.718434,-78141.740796
402.239902,-5625.565159,-8882.471304,-76303.111601
402.242370,-740.205942,-10362.883188,-77375.645298
402.244837,2516.700203,-10510.924376,-77069.207099
402.247305,-1036.288319,-2812.782580,-77528.864398
402.249772,-1480.411884,0.000000,-79214.274493
402.252240,2812.782580,-444.123565,-78448.178995
402.254707,-5477.523971,-1332.370696,-75996.673402
402.257175,-1332.370696,-592.164754,-77988.521696
402.259642,3108.864956,-8290.306550,-78294.959896
402.262110,148.041188,-6069.688724,-76609.549800
402.264577,-4589.276840,-6809.894666,-78294.959896
402.267045,5033.400406,-3701.029710,-79367.493593
402.269512,1628.453072,-3108.864956,-78448.178995
402.271980,-2072.576638,1036.288319,-77069.207099
402.274447,3404.947333,-3849.070898,-77375.645298
402.276915,2220.617826,592.164754,-76915.987999
402.279408,-3404.947333,0.000000,-75996.673402
402.281902,-2664.741391,-3997.112087,-79061.055394
402.284396,888.247130,-2960.823768,-77375.645298
402.286890,-4589.276840,-3552.988522,-76149.892501
402.289384,-888.247130,-2812.782580,-76609.549800
402.291878,1036.288319,-10807.006753,-77375.645298
402.294372,-4737.318029,-3849.070898,-76456.330700
402.296866,-1184.329507,-6957.935855,-78754.617194
402.299359,5181.441594,-3552.988522,-79214.274493
402.301853,3997.112087,-4441.235652,-78601.398095
402.304347,-2072.576638,1036.288319,-77222.426198
402.306841,5329.482782,-6069.688724,-78907.836294
402.309335,-592.164754,-3849.070898,-77988.521696
402.311829,-2516.700203,-2516.700203,-78448.178995
402.314323,6069.688724,-6661.853478,-78448.178995
402.316817,888.247130,-5477.523971,-77375.645298
402.319310,-2664.741391,-4145.153275,-79367.493593
402.321804,888.247130,-2960.823768,-77682.083497
402.324298,2516.700203,740.205942,-78448.178995
402.326792,-3256.906145,4441.235652,-77375.645298
402.329286,888.247130,6069.688724,-77528.864398
402.331780,3552.988522,6661.853478,-76609.549800
402.334274,-5921.647536,4737.318029,-77069.207099
402.336768,740.205942,3108.864956,-79673.931792
402.339261,1184.329507,-888.247130,-76762.768900
402.341755,-3256.906145,1628.453072,-77222.426198
402.344249,-2960.823768,444.123565,-78754.617194
402.346743,3404.947333,-592.164754,-77835.302597
402.349237,-5773.606348,1036.288319,-77069.207099
402.351731,-444.123565,4293.194464,-78448.178995
402.354225,5181.441594,2960.823768,-78294.959896
402.356719,-3108.864956,1628.453072,-77222.426198
402.359212,-3108.864956,2516.700203,-79520.712692
402.361706,3997.112087,-1924.535449,-77375.645298
402.364200,2812.782580,740.205942,-78141.740796
402.366694,-3552.988522,592.164754,-76609.549800
402.369188,2960.823768,-2220.617826,-77988.521696
402.371682,1628.453072,148.041188,-77988.521696
402.374176,-3701.029710,5477.523971,-77988.521696
402.376669,4737.318029,740.205942,-78754.617194
402.379181,2812.782580,4737.318029,-76303.111601
402.381692,-1184.329507,4293.194464,-78907.836294
402.384204,2960.823768,6513.812290,-77988.521696
402.386715,1332.370696,-1776.494261,-78601.398095
402.389226,-2516.700203,3849.070898,-75537.016103
402.391738,-1924.535449,-740.205942,-78448.178995
402.394249,4145.153275,-1036.288319,-77069.207099
402.396761,-5329.482782,-148.041188,-77069.207099
402.399272,-1776.494261,5477.523971,-77682.083497
402.401783,1924.535449,740.205942,-78141.740796
402.404295,-2516.700203,5033.400406,-76456.330700
402.406806,-1924.535449,3256.906145,-77988.521696
402.409317,4293.194464,1480.411884,-79061.055394
402.411829,1776.494261,-2220.617826,-77682.083497
402.414340,-2516.700203,-4441.235652,-78294.959896
402.416852,5773.606348,-11399.171507,-78754.617194
402.419363,740.205942,-8142.265362,-77069.207099
402.421874,-2960.823768,-6365.771101,-79367.493593
402.424386,5329.482782,-5329.482782,-79214.274493
402.426897,740.205942,-296.082377,-77375.645298
402.429408,-2072.576638,2072.576638,-78754.617194
402.431920,148.041188,0.000000,-78141.740796
402.434431,2516.700203,-5181.441594,-77222.426198
402.436943,-5921.647536,-6365.771101,-76149.892501
402.439454,-148.041188,-6661.853478,-77682.083497
402.441965,2072.576638,-9474.636058,-77069.207099
402.444477,-3849.070898,-888.247130,-77069.207099
402.446988,740.205942,-4589.276840,-79061.055394
402.449499,592.164754,148.041188,-75690.235202
402.452011,-5329.482782,-1776.494261,-75996.673402
402.454522,-1036.288319,-148.041188,-79061.055394
402.457034,6365.771101,-4293.194464,-78907.836294
402.459545,-1628.453072,-296.082377,-76762.768900
402.462056,-2368.659014,-5033.400406,-77988.521696
402.464568,4145.153275,-8438.347739,-77528.864398
402.467079,-3256.906145,-5921.647536,-77222.426198
402.469591,-1332.370696,-3108.864956,-78907.836294
402.472102,2960.823768,-9474.636058,-77222.426198
402.474613,888.247130,-2516.700203,-77375.645298
402.477125,-2516.700203,-3849.070898,-76915.987999
402.479650,2516.700203,-1628.453072,-77528.864398
402.482175,888.247130,-5625.565159,-77682.083497
402.484701,-4441.235652,-1628.453072,-77835.302597
402.487226,1332.370696,-5329.482782,-78448.178995
402.489751,1924.535449,-2664.741391,-76456.330700
402.492277,-3404.947333,-4589.276840,-77682.083497
402.494802,3256.906145,-4441.235652,-78907.836294
402.497327,3552.988522,-5329.482782,-78294.959896
402.499852,-4293.194464,888.247130,-77222.426198
402.502378,-2812.782580,5181.441594,-78754.617194
402.504903,4293.194464,4441.235652,-77988.521696
402.507428,-3701.029710,6217.729913,-75690.235202
402.509954,-1036.288319,5329.482782,-77988.521696
402.512479,1628.453072,-888.247130,-77835.302597
402.515004,-3701.029710,148.041188,-77375.645298
402.517530,444.123565,0.000000,-78448.178995
402.520055,4589.276840,-592.164754,-79367.493593
402.522580,2220.617826,1924.535449,-78141.740796
402.525106,-5329.482782,3552.988522,-77375.645298
402.527631,7105.977043,3404.947333,-79673.931792
402.530156,2516.700203,6661.853478,-78141.740796
402.532682,-2664.741391,3701.029710,-77835.302597
402.535207,3552.988522,1924.535449,-77222.426198
402.537732,2368.659014,2516.700203,-77835.302597
402.540257,-4293.194464,-2812.782580,-75077.358804
402.542783,-1924.535449,-3108.864956,-78907.836294
402.545308,740.205942,-1332.370696,-77835.302597
402.547833,-4885.359217,3701.029710,-75383.797003
402.550359,-3404.947333,1332.370696,-77988.521696
402.552884,3997.112087,3404.947333,-77528.864398
402.555409,-6513.812290,5033.400406,-77835.302597
402.557935,-4589.276840,5477.523971,-79214.274493
402.560470,4737.318029,2072.576638,-79980.369991
402.563005,1480.411884,-296.082377,-77988.521696
402.565540,-3404.947333,1184.329507,-76915.987999
402.568075,-2220.617826,-296.082377,-77682.083497
402.570610,1776.494261,888.247130,-76303.111601
402.573145,-5921.647536,2220.617826,-76303.111601
402.575681,444.123565,5329.482782,-78601.398095
402.578216,2072.576638,2664.741391,-79061.055394
402.580751,-2072.576638,5625.565159,-76303.111601
402.583286,-740.205942,1480.411884,-78754.617194
402.585821,6217.729913,-7698.141797,-78141.740796
402.588356,-4145.153275,-7846.182985,-77222.426198
402.590891,-1480.411884,-9326.594869,-78754.617194
402.593426,3701.029710,-10807.006753,-78907.836294
402.595961,1036.288319,-7105.977043,-77528.864398
402.598497,-2516.700203,1036.288319,-78294.959896
402.601032,3997.112087,-1776.494261,-77375.645298
402.603567,-4293.194464,1628.453072,-76762.768900
402.606102,-2960.823768,-592.164754,-78141.740796
402.608637,2516.700203,-5477.523971,-77682.083497
402.611172,592.164754,-8438.347739,-77375.645298
402.613707,-5477.523971,-8142.265362,-77222.426198
402.616242,444.123565,-6365.771101,-78907.836294
402.618778,3256.906145,-2960.823768,-76456.330700
402.621313,-3404.947333,148.041188,-76456.330700
402.623848,2516.700203,-1776.494261,-77375.645298
402.626383,1036.288319,-1332.370696,-78448.178995
402.628918,-2516.700203,-2812.782580,-75996.673402
402.631453,-592.164754,-1184.329507,-78907.836294
402.633988,5181.441594,-4293.194464,-79061.055394
402.636523,-3404.947333,-6217.729913,-75383.797003
402.639059,-2960.823768,-7402.059420,-76915.987999
402.641594,2368.659014,-9030.512492,-77682.083497
402.644129,-3552.988522,-3256.906145,-77375.645298
402.646664,-296.082377,-4737.318029,-77988.521696
402.649199,3404.947333,-6661.853478,-76149.892501
402.651734,1924.535449,-2664.741391,-76609.549800
402.654269,-3997.112087,-5921.647536,-77835.302597
402.656804,5477.523971,-2072.576638,-78601.398095
402.659339,2368.659014,-3404.947333,-78754.617194
402.661881,-3552.988522,-444.123565,-77375.645298
402.664423,5181.441594,-6365.771101,-78294.959896
402.666965,2516.700203,-2664.741391,-76149.892501
402.669506,-4737.318029,-888.247130,-78754.617194
402.672048,5477.523971,4885.359217,-78141.740796
402.674590,1036.288319,5181.441594,-77222.426198
402.677131,-5329.482782,7105.977043,-75996.673402
402.679673,-296.082377,5477.523971,-78141.740796
402.682215,888.247130,1480.411884,-76149.892501
402.684756,-4737.318029,888.247130,-76456.330700
402.687298,-1628.453072,2072.576638,-78754.617194
402.689840,2664.741391,-2072.576638,-77682.083497
402.692382,-7550.100608,1332.370696,-75383.797003
402.694923,-3849.070898,2220.617826,-78448.178995
402.697465,3108.864956,1924.535449,-77988.521696
402.700007,2664.741391,2664.741391,-76456.330700
402.702548,-3108.864956,7994.224174,-79520.712692
402.705090,6809.894666,-740.205942,-80286.808190
402.707632,-2072.576638,5329.482782,-75230.577904
402.710173,-296.082377,-2812.782580,-77835.302597
402.712715,4145.153275,-4737.318029,-78907.836294
402.715257,592.164754,1036.288319,-75996.673402
402.717799,-4885.359217,4737.318029,-76762.768900
402.720340,1628.453072,1628.453072,-78754.617194
402.722882,4441.235652,7105.977043,-76149.892501
402.725424,-2960.823768,4589.276840,-77835.302597
402.727965,888.247130,6365.771101,-79520.712692
402.730507,1924.535449,1036.288319,-76762.768900
402.733049,-7402.059420,2664.741391,-75537.016103
402.735590,1924.535449,-740.205942,-78448.178995
402.738132,4293.194464,592.164754,-78294.959896
402.740674,-3997.112087,1924.535449,-75996.673402
402.743216,-740.205942,5329.482782,-79367.493593
402.745757,3849.070898,1480.411884,-79673.931792
402.748299,-2220.617826,4589.276840,-77069.207099
402.750841,-2812.782580,2812.782580,-78141.740796
402.753382,3849.070898,-4293.194464,-77375.645298
402.755924,-4441.235652,-6513.812290,-75537.016103
402.758466,-3256.906145,-8142.265362,-77528.864398
402.761007,4145.153275,-13767.830521,-78907.836294
402.763557,3108.864956,-8438.347739,-78907.836294
402.766104,-2516.700203,-1924.535449,-78601.398095
402.768651,3701.029710,-296.082377,-78294.959896
402.771198,1924.535449,1036.288319,-76149.892501
402.773745,-2960.823768,592.164754,-77682.083497
402.776292,6217.729913,-1184.329507,-78448.178995
402.778839,1184.329507,-6661.853478,-78294.959896
402.781386,-3997.112087,-6513.812290,-77835.302597
402.783933,-2516.700203,-6365.771101,-79061.055394
402.786480,2812.782580,-8142.265362,-76762.768900
402.789027,-2960.823768,-740.205942,-75077.358804
402.791574,-1776.494261,740.205942,-77682.083497
402.794121,444.123565,-3404.947333,-78907.836294
402.796668,-3256.906145,1184.329507,-77528.864398
402.799215,-1036.288319,-1036.288319,-78448.178995
402.801762,2220.617826,-8882.471304,-77682.083497
402.804309,-6217.729913,-5181.441594,-77528.864398
402.806856,-4441.235652,-8734.430116,-77069.207099
402.809403,4885.359217,-5181.441594,-78907.836294
402.811950,1776.494261,-5625.565159,-79214.274493
402.814498,-3701.029710,740.205942,-78448.178995
402.817045,4293.194464,-6365.771101,-78601.398095
402.819592,592.164754,-3256.906145,-76915.987999
402.822139,-3108.864956,-4145.153275,-79367.493593
402.824686,4145.153275,-3997.112087,-78601.398095
402.827233,2220.617826,-3997.112087,-76609.549800
402.829780,-2812.782580,-3701.029710,-76609.549800
402.832327,-2664.741391,-5477.523971,-77528.864398
402.834874,1776.494261,-3552.988522,-77069.207099
402.837421,-6809.894666,888.247130,-76456.330700
402.839968,1628.453072,6365.771101,-79061.055394
402.842515,2516.700203,5329.482782,-78294.959896
402.845062,-3552.988522,8734.430116,-76456.330700
402.847609,-148.041188,3552.988522,-77375.645298
402.850156,4885.359217,-148.041188,-78141.740796
402.852703,-592.164754,148.041188,-77682.083497
402.855250,444.123565,1776.494261,-79673.931792
402.857797,6069.688724,-3849.070898,-78754.617194
402.860344,-3701.029710,3997.112087,-76303.111601
402.862891,-4737.318029,2812.782580,-78907.836294
402.865443,5773.606348,5329.482782,-77835.302597
402.867995,-2664.741391,1924.535449,-75996.673402
402.870546,-2812.782580,5033.400406,-77682.083497
402.873098,1184.329507,2220.617826,-77222.426198
402.875650,2220.617826,-2960.823768,-76149.892501
402.878201,-3108.864956,-1924.535449,-79214.274493
402.880753,4441.235652,13175.665768,-77222.426198
402.883305,-592.164754,-11991.336260,-80133.589091
402.885856,-3404.947333,12583.501014,-74770.920605
402.888408,4441.235652,1184.329507,-79827.150892
402.890960,1776.494261,11547.212695,-76149.892501
402.893512,-3997.112087,2220.617826,-79367.493593
402.896063,-1184.329507,4145.153275,-78294.959896
402.898615,296.082377,-1332.370696,-77069.207099
402.901167,-4441.235652,1184.329507,-76915.987999
402.903718,-740.205942,1036.288319,-78141.740796
402.906270,4293.194464,-444.123565,-78907.836294
402.908822,-2812.782580,2368.659014,-76609.549800
402.911373,-2960.823768,5181.441594,-77835.302597
402.913925,2072.576638,-148.041188,-78448.178995
402.916477,-5033.400406,4441.235652,-78754.617194
402.919029,-1480.411884,-2220.617826,-77988.521696
402.921580,3701.029710,-7254.018232,-77222.426198
402.924132,2220.617826,-10510.924376,-76915.987999
402.926684,-3997.112087,-10658.965565,-78754.617194
402.929235,5033.400406,-8586.388927,-79520.712692
402.931787,1332.370696,-2812.782580,-77069.207099
402.934339,-4145.153275,-148.041188,-77835.302597
402.936891,3552.988522,-444.123565,-78601.398095
402.939442,2516.700203,-2220.617826,-76915.987999
402.941994,-2812.782580,-2220.617826,-75843.454302
402.944546,-1332.370696,-5921.647536,-77835.302597
402.947097,1628.453072,-10362.883188,-78141.740796
402.949649,-7105.977043,-10510.924376,-76149.892501
402.952201,1184.329507,-3552.988522,-77375.645298
402.954752,3256.906145,740.205942,-78448.178995
402.957304,-4293.194464,-3108.864956,-76915.987999
402.959856,-1480.411884,-3997.112087,-77222.426198
402.962408,4737.318029,-4589.276840,-78754.617194
402.964959,3108.864956,1776.494261,-76609.549800
402.967450,-1332.370696,-7105.977043,-79214.274493
402.969942,5773.606348,-10807.006753,-79061.055394
402.972433,1036.288319,-8142.265362,-76915.987999
402.974924,-5329.482782,-4293.194464,-76609.549800
402.977415,-1036.288319,-3256.906145,-79367.493593
402.979906,1776.494261,-4145.153275,-77682.083497
402.982397,-4737.318029,-2220.617826,-76149.892501
402.984889,-2072.576638,-2516.700203,-77375.645298
402.987380,2072.576638,-6809.894666,-77988.521696
402.989871,-592.164754,-5033.400406,-77528.864398
402.992362,-740.205942,-2516.700203,-77835.302597
402.994853,4589.276840,-10066.800811,-77528.864398
402.997344,-4885.359217,-1184.329507,-77222.426198
402.999836,-1332.370696,1332.370696,-79520.712692
403.002327,4145.153275,4885.359217,-78448.178995
403.004818,444.123565,8290.306550,-76149.892501
403.007309,-5773.606348,5921.647536,-76609.549800
403.009800,1036.288319,4885.359217,-77682.083497
403.012291,3404.947333,1184.329507,-78294.959896
403.014782,-2664.741391,1332.370696,-78754.617194
403.017274,3552.988522,-2960.823768,-79827.150892
403.019765,2072.576638,296.082377,-77375.645298
403.022256,-7254.018232,3997.112087,-76609.549800
403.024747,3997.112087,3849.070898,-78448.178995
403.027238,7698.141797,5921.647536,-77375.645298
403.029729,-2960.823768,3552.988522,-76609.549800
403.032221,-2664.741391,2072.576638,-78601.398095
403.034712,2072.576638,-2220.617826,-78294.959896
403.037203,-3552.988522,-3552.988522,-75843.454302
403.039694,-148.041188,1924.535449,-77835.302597
403.042185,3552.988522,-1036.288319,-77682.083497
403.044676,-5033.400406,2220.617826,-77835.302597
403.047168,-3256.906145,8290.306550,-79061.055394
403.049659,4885.359217,4589.276840,-80286.808190
403.052150,3404.947333,7254.018232,-78448.178995
403.054641,-2072.576638,3849.070898,-77222.426198
403.057132,5329.482782,1332.370696,-77375.645298
403.059623,-888.247130,1924.535449,-77835.302597
403.062115,-2516.700203,2072.576638,-79367.493593
403.064606,4145.153275,1480.411884,-78601.398095
403.067116,3108.864956,1924.535449,-77528.864398
403.069626,-4885.359217,3997.112087,-78907.836294
403.072136,-2960.823768,5773.606348,-76149.892501
403.074646,2960.823768,1628.453072,-77835.302597
403.077156,-2960.823768,-2664.741391,-75996.673402
403.079666,-2664.741391,-6069.688724,-78294.959896
403.082176,1924.535449,-13471.748144,-77222.426198
403.084686,-5625.565159,-11251.130318,-76149.892501
403.087196,-888.247130,-10510.924376,-79061.055394
403.089706,2812.782580,-1332.370696,-76762.768900
403.092216,-6957.935855,-3849.070898,-77835.302597
403.094726,-3108.864956,4737.318029,-77069.207099
403.097236,3997.112087,-3256.906145,-79520.712692
403.099746,2220.617826,-1924.535449,-76456.330700
403.102256,-2072.576638,-5181.441594,-78907.836294
403.104766,5921.647536,-8586.388927,-79673.931792
403.107276,296.082377,-10214.842000,-77375.645298
403.109786,-1480.411884,-1776.494261,-76609.549800
403.112296,4145.153275,-2812.782580,-79061.055394
403.114806,1628.453072,-444.123565,-76762.768900
403.117316,-3849.070898,-1776.494261,-77222.426198
403.119826,148.041188,-148.041188,-77375.645298
403.122336,2072.576638,-4737.318029,-76303.111601
403.124846,-4885.359217,-8290.306550,-77682.083497
403.127356,1480.411884,-8882.471304,-78907.836294
403.129866,2368.659014,-9326.594869,-78448.178995
403.132376,-4145.153275,-3997.112087,-75230.577904
403.134887,2072.576638,-3256.906145,-78601.398095
403.137397,5773.606348,-5181.441594,-78754.617194
403.139907,-3404.947333,-2368.659014,-76915.987999
403.142417,-2664.741391,-2812.782580,-78907.836294
403.144927,2220.617826,-5477.523971,-77069.207099
403.147437,-2072.576638,-6365.771101,-76762.768900
403.149947,-1184.329507,-5033.400406,-78141.740796
403.152457,3552.988522,-9770.718434,-78754.617194
403.154967,-3256.906145,-148.041188,-77528.864398
403.157477,-2072.576638,4441.235652,-77835.302597
403.159987,5329.482782,9326.594869,-79061.055394
403.162497,2220.617826,9326.594869,-78141.740796
403.165007,-3552.988522,9030.512492,-76762.768900
403.167532,296.082377,2812.782580,-78601.398095
403.170058,2664.741391,-888.247130,-77375.645298
403.172583,-2812.782580,-740.205942,-78448.178995
403.175109,4885.359217,-4293.194464,-79367.493593
403.177634,-1036.288319,740.205942,-77682.083497
403.180160,-2664.741391,3404.947333,-77528.864398
403.182685,-1776.494261,5033.400406,-78141.740796
403.185210,3552.988522,5477.523971,-77375.645298
403.187736,-3849.070898,6217.729913,-77528.864398
403.190261,-1332.370696,-1184.329507,-77375.645298
403.192787,888.247130,-7254.018232,-76762.768900
403.195312,-2664.741391,148.041188,-77375.645298
403.197838,-2368.659014,-888.247130,-79520.712692
403.200363,4145.153275,3552.988522,-77988.521696
403.202888,-5477.523971,8142.265362,-77069.207099
403.205414,-2664.741391,8142.265362,-77682.083497
403.207939,4737.318029,6513.812290,-78907.836294
403.210465,4737.318029,3552.988522,-76456.330700
403.212990,-4293.194464,3849.070898,-79980.369991
403.215516,3849.070898,-1480.411884,-79827.150892
403.218041,888.247130,1480.411884,-77528.864398
403.220567,-2516.700203,296.082377,-78294.959896
403.223092,5625.565159,1184.329507,-78754.617194
403.225617,1924.535449,2812.782580,-77682.083497
403.228143,-7402.059420,6513.812290,-76303.111601
403.230668,148.041188,1332.370696,-78907.836294
403.233194,3552.988522,-3997.112087,-77375.645298
403.235719,-2812.782580,-10066.800811,-77069.207099
403.238245,444.123565,-9770.718434,-77069.207099
403.240770,1776.494261,-14656.077652,-77835.302597
403.243296,-2960.823768,-6809.894666,-76762.768900
403.245821,-1480.411884,-5329.482782,-79673.931792
403.248346,6217.729913,3108.864956,-78141.740796
403.250872,592.164754,592.164754,-77528.864398
403.253397,-1924.535449,3256.906145,-77682.083497
403.255923,3997.112087,-7994.224174,-78907.836294
403.258448,-2368.659014,-8142.265362,-76456.330700
403.260974,-740.205942,-6365.771101,-79367.493593
403.263499,5033.400406,-15396.283594,-78754.617194
403.266024,-1776.494261,740.205942,-75690.235202
403.268561,-3997.112087,5033.400406,-75383.797003
403.271097,1184.329507,3404.947333,-77222.426198
403.273633,1480.411884,-5033.400406,-79061.055394
403.276169,-4145.153275,-1480.411884,-77988.521696
403.278705,1184.329507,-8586.388927,-78294.959896
403.281241,1332.370696,-5625.565159,-74924.139704
403.283777,-3552.988522,-11103.089130,-77682.083497
403.286313,-1036.288319,-6069.688724,-79214.274493
403.288850,1924.535449,-7254.018232,-76915.987999
403.291386,-3701.029710,148.041188,-76456.330700
403.293922,-1036.288319,148.041188,-76456.330700
403.296458,1924.535449,-4589.276840,-78294.959896
403.298994,-2960.823768,-2812.782580,-77222.426198
403.301530,-2072.576638,-4441.235652,-78141.740796
403.304066,4589.276840,-10658.965565,-77682.083497
403.306603,-4885.359217,-2072.576638,-76149.892501
403.309139,-1332.370696,-3256.906145,-79061.055394
403.311675,2960.823768,4145.153275,-77375.645298
403.314211,2368.659014,10510.924376,-76762.768900
403.316747,-3701.029710,10362.883188,-76762.768900
403.319283,6513.812290,7550.100608,-78294.959896
403.321819,-296.082377,3404.947333,-77682.083497
403.324355,-1332.370696,1776.494261,-77682.083497
403.326892,5033.400406,-3404.947333,-79061.055394
403.329428,2368.659014,-888.247130,-76609.549800
403.331964,-5773.606348,-296.082377,-78141.740796
403.334500,-1332.370696,4737.318029,-76762.768900
403.337036,2960.823768,6217.729913,-77375.645298
403.339572,-2664.741391,4441.235652,-76609.549800
403.342108,-2072.576638,7846.182985,-75996.673402
403.344644,888.247130,-4293.194464,-75843.454302
403.347181,-5625.565159,1332.370696,-78448.178995
403.349717,740.205942,-2664.741391,-79673.931792
403.352253,2516.700203,444.123565,-76762.768900
403.354789,-3404.947333,2368.659014,-75996.673402
403.357325,-3552.988522,5181.441594,-77528.864398
403.359861,3849.070898,8438.347739,-77528.864398
403.362397,2664.741391,3997.112087,-78601.398095
403.364933,-1628.453072,6809.894666,-79520.712692
403.367470,4885.359217,-1332.370696,-79367.493593
403.370014,-1184.329507,3701.029710,-76456.330700
403.372559,-2516.700203,-740.205942,-78141.740796
403.375104,5625.565159,-888.247130,-79520.712692
403.377649,1776.494261,740.205942,-78141.740796
403.380193,-5625.565159,8142.265362,-76149.892501
403.382738,-2960.823768,592.164754,-77988.521696
403.385283,6661.853478,-3701.029710,-78294.959896
403.387828,3108.864956,-10658.965565,-79061.055394
403.390372,-1924.535449,-8586.388927,-77069.207099
403.392917,4589.276840,-12287.418637,-79061.055394
403.395462,-592.164754,-8734.430116,-77682.083497
403.398007,-2072.576638,-4145.153275,-79061.055394
403.400552,4293.194464,-148.041188,-78448.178995
403.403096,3256.906145,2516.700203,-75383.797003
403.405641,-3552.988522,-1332.370696,-78448.178995
403.408186,-1480.411884,-5625.565159,-78141.740796
403.410731,1332.370696,-4885.359217,-77528.864398
403.413275,-4589.276840,-8142.265362,-77222.426198
403.415820,296.082377,-11251.130318,-77682.083497
403.418365,2072.576638,-2072.576638,-77069.207099
403.420910,-5033.400406,2664.741391,-77682.083497
403.423454,296.082377,-1924.535449,-78141.740796
403.425999,3701.029710,-5329.482782,-77988.521696
403.428544,-1924.535449,-3404.947333,-77682.083497
403.431089,-1184.329507,-4885.359217,-77528.864398
403.433633,4145.153275,-14508.036463,-79061.055394
403.436178,-4885.359217,-10362.883188,-75843.454302
403.438723,-2072.576638,-8734.430116,-79061.055394
403.441268,2220.617826,-5773.606348,-77222.426198
403.443813,-4145.153275,-592.164754,-75996.673402
403.446357,-2960.823768,148.041188,-78448.178995
403.448902,1184.329507,148.041188,-77222.426198
403.451447,2812.782580,-5329.482782,-77222.426198
403.453992,-3849.070898,-3997.112087,-77528.864398
403.456536,2960.823768,-5625.565159,-78907.836294
403.459081,1480.411884,-1332.370696,-78754.617194
403.461626,-2220.617826,3849.070898,-77682.083497
403.464171,5181.441594,8142.265362,-77988.521696
403.466715,1628.453072,11399.171507,-77835.302597
403.469260,-2664.741391,8586.388927,-75996.673402
403.471812,-1924.535449,5773.606348,-77988.521696
403.474363,2220.617826,-1480.411884,-77222.426198
403.476915,-2516.700203,-2072.576638,-76762.768900
403.479467,-740.205942,-2664.741391,-78141.740796
403.482018,148.041188,-1924.535449,-77222.426198
403.484570,-3701.029710,2220.617826,-77682.083497
403.487122,-1924.535449,5033.400406,-78294.959896
403.489673,2812.782580,3997.112087,-75996.673402
403.492225,2368.659014,6809.894666,-76456.330700
403.494777,-2368.659014,6661.853478,-77069.207099
403.497328,4293.194464,-9178.553681,-80593.246390
403.499880,3108.864956,3404.947333,-77835.302597
403.502431,-2368.659014,2960.823768,-78141.740796
403.504983,6217.729913,2960.823768,-77528.864398
403.507535,0.000000,6069.688724,-77682.083497
403.510086,-2960.823768,8586.388927,-79673.931792
403.512638,-1036.288319,3701.029710,-79673.931792
403.515190,3108.864956,3404.947333,-77069.207099
403.517741,-3701.029710,1776.494261,-76149.892501
403.520293,444.123565,1332.370696,-77069.207099
403.522844,2368.659014,-1924.535449,-77222.426198
403.525396,-5033.400406,-2072.576638,-77375.645298
403.527948,592.164754,3552.988522,-77069.207099
403.530499,3404.947333,2664.741391,-76149.892501
403.533051,-4737.318029,-592.164754,-76149.892501
403.535603,-2072.576638,-5329.482782,-78754.617194
403.538154,5181.441594,-9622.677246,-77682.083497
403.540706,-1184.329507,-10658.965565,-77682.083497
403.543258,-1628.453072,-8290.306550,-78907.836294
403.545809,2960.823768,-8734.430116,-77835.302597
403.548361,-592.164754,-2664.741391,-76456.330700
403.550912,-1776.494261,1184.329507,-79061.055394
403.553464,5181.441594,-1776.494261,-78754.617194
403.556016,-3701.029710,-3404.947333,-76456.330700
403.558567,-4145.153275,-5921.647536,-77835.302597
403.561119,-592.164754,-9474.636058,-79827.150892
403.563671,1628.453072,-6217.729913,-76762.768900
403.566222,-3997.112087,-2812.782580,-75383.797003
403.568774,888.247130,-2960.823768,-78294.959896
403.571325,740.205942,-2664.741391,-78754.617194
403.573830,-4589.276840,-888.247130,-77988.521696
403.576335,3997.112087,1924.535449,-75996.673402
403.578840,2812.782580,-7994.224174,-78754.617194
403.581345,-1628.453072,-5921.647536,-74311.263306
403.583849,-1036.288319,-11399.171507,-79061.055394
403.586354,2960.823768,-13323.706956,-79367.493593
403.588859,-1184.329507,-6217.729913,-77835.302597
403.591364,-444.123565,148.041188,-77069.207099
403.593868,3404.947333,-3108.864956,-77222.426198
403.596373,-3701.029710,-1184.329507,-76762.768900
403.598878,-148.041188,-1924.535449,-78754.617194
403.601383,3701.029710,-5921.647536,-78448.178995
403.603888,1924.535449,-3108.864956,-77835.302597
403.606392,-3108.864956,1924.535449,-78907.836294
403.608897,5329.482782,2812.782580,-79214.274493
403.611402,888.247130,6217.729913,-77069.207099
403.613907,-1924.535449,9918.759623,-78448.178995
403.616411,4145.153275,9326.594869,-78141.740796
403.618916,1184.329507,5477.523971,-77682.083497
403.621421,-2516.700203,3849.070898,-78754.617194
403.623926,592.164754,-1628.453072,-78141.740796
403.626430,740.205942,-3701.029710,-76303.111601
403.628935,-5181.441594,2072.576638,-75077.358804
403.631440,-1184.329507,148.041188,-77069.207099
403.633945,2220.617826,3552.988522,-76915.987999
403.636450,-5625.565159,6069.688724,-77069.207099
403.638954,-740.205942,3552.988522,-76762.768900
403.641459,2368.659014,-2516.700203,-77222.426198
403.643964,-3997.112087,7105.977043,-75690.235202
403.646469,-1776.494261,-1924.535449,-80286.808190
403.648973,6365.771101,2960.823768,-77528.864398
403.651478,148.041188,1628.453072,-78754.617194
403.653983,-2072.576638,10510.924376,-77069.207099
403.656488,3849.070898,4885.359217,-79673.931792
403.658992,1184.329507,5773.606348,-76609.549800
403.661497,-592.164754,5477.523971,-77835.302597
403.664002,5033.400406,296.082377,-79214.274493
403.666507,1480.411884,2368.659014,-74464.482406
403.669012,-5181.441594,-4145.153275,-79520.712692
403.671516,2960.823768,1776.494261,-77682.083497
403.674038,1628.453072,3404.947333,-77988.521696
403.676559,-3997.112087,2220.617826,-75996.673402
403.679080,-296.082377,-3256.906145,-77528.864398
403.681602,2664.741391,-8586.388927,-76609.549800
403.684123,-3256.906145,-7994.224174,-77682.083497
403.686645,1184.329507,-11695.253884,-78907.836294
403.689166,4737.318029,-9178.553681,-77069.207099
403.691687,-1480.411884,-5625.565159,-78601.398095
403.694209,-2664.741391,148.041188,-78754.617194
403.696730,5329.482782,-2960.823768,-77988.521696
403.699252,-3256.906145,-888.247130,-74770.920605
403.701773,-740.205942,-2960.823768,-78294.959896
403.704294,1776.494261,-11103.089130,-77682.083497
403.706816,-3108.864956,-3552.988522,-77528.864398
403.709337,444.123565,-10807.006753,-81665.780087
403.711859,3256.906145,-2516.700203,-79367.493593
403.714380,740.205942,740.205942,-77835.302597
403.716901,-5625.565159,-6957.935855,-76609.549800
403.719423,3256.906145,1184.329507,-77682.083497
403.721944,5773.606348,-6513.812290,-77988.521696
403.724466,-4145.153275,-1184.329507,-77988.521696
403.726987,5181.441594,-12139.377449,-78907.836294
403.729508,296.082377,-7994.224174,-75843.454302
403.732030,-3256.906145,-8882.471304,-77069.207099
403.734551,-1480.411884,444.123565,-78294.959896
403.737073,2812.782580,-3404.947333,-76762.768900
403.739594,-4885.359217,-1184.329507,-75843.454302
403.742115,-1036.288319,-3108.864956,-77222.426198
403.744637,296.082377,-6957.935855,-77069.207099
403.747158,-4441.235652,-3552.988522,-77222.426198
403.749680,-740.205942,1924.535449,-78294.959896
403.752201,2220.617826,444.123565,-78294.959896
403.754734,1924.535449,9178.553681,-77069.207099
403.757268,-4293.194464,7846.182985,-77835.302597
403.759802,5477.523971,6809.894666,-78601.398095
403.762337,1480.411884,5921.647536,-78294.959896
403.764871,-2812.782580,2664.741391,-78907.836294
403.767405,4589.276840,-2072.576638,-79673.931792
403.769940,1628.453072,-3552.988522,-77375.645298
403.772474,-2960.823768,1184.329507,-77682.083497
403.775008,0.000000,1332.370696,-77528.864398
403.777542,2072.576638,6809.894666,-77222.426198
403.780077,-3849.070898,3256.906145,-79061.055394
403.782611,-888.247130,3256.906145,-77528.864398
403.785145,2072.576638,1776.494261,-75996.673402
403.787680,-6069.688724,-2072.576638,-77069.207099
403.790214,444.123565,3256.906145,-78601.398095
403.792748,3256.906145,1036.288319,-77682.083497
403.795282,-1036.288319,6217.729913,-77835.302597
403.797817,-888.247130,10214.842000,-77222.426198
403.800351,-1480.411884,5921.647536,-77988.521696
403.802885,3552.988522,4737.318029,-77682.083497
403.805420,-5921.647536,1036.288319,-77222.426198
403.807954,-444.123565,888.247130,-77528.864398
403.810488,1776.494261,-1332.370696,-77375.645298
403.813022,-3552.988522,2072.576638,-77682.083497
403.815557,-296.082377,1628.453072,-78754.617194
403.818091,1776.494261,-592.164754,-76915.987999
403.820625,-5477.523971,-3997.112087,-76303.111601
403.823160,-592.164754,-7698.141797,-77375.645298
403.825694,3849.070898,-13027.624579,-77682.083497
403.828228,-1628.453072,-8290.306550,-76915.987999
403.830762,-2960.823768,-6513.812290,-79980.369991
403.833297,3108.864956,-7402.059420,-78448.178995
403.835831,-5329.482782,-148.041188,-74770.920605
403.838365,740.205942,-2812.782580,-77222.426198
403.840900,4293.194464,-4441.235652,-77835.302597
403.843434,-2368.659014,-3404.947333,-75996.673402
403.845968,-7402.059420,-9326.594869,-77835.302597
403.848502,7254.018232,-1184.329507,-79673.931792
403.851037,1480.411884,-4293.194464,-78907.836294
403.853571,-1332.370696,-6217.729913,-77069.207099
403.856068,4145.153275,1628.453072,-76149.892501
403.858564,2368.659014,-2220.617826,-77835.302597
403.861061,-3849.070898,-1036.288319,-79214.274493
403.863558,6069.688724,-9326.594869,-79214.274493
403.866055,1332.370696,-12139.377449,-77222.426198
403.868551,-3997.112087,-9326.594869,-74924.139704
403.871048,-2960.823768,-7550.100608,-77222.426198
403.873545,2368.659014,-6661.853478,-76915.987999
403.876041,-3256.906145,-1184.329507,-77988.521696
403.878538,-1036.288319,-444.123565,-77682.083497
403.881035,3404.947333,-2812.782580,-76456.330700
403.883531,-6365.771101,-4441.235652,-75383.797003
403.886028,-592.164754,-6069.688724,-77682.083497
403.888525,3552.988522,0.000000,-79214.274493
403.891022,3404.947333,2072.576638,-77528.864398
403.893518,-2220.617826,8882.471304,-78907.836294
403.896015,5329.482782,5181.441594,-78601.398095
403.898512,-2072.576638,7846.182985,-77682.083497
403.901008,-2960.823768,7550.100608,-77682.083497
403.903505,5773.606348,3256.906145,-79214.274493
403.906002,1924.535449,-148.041188,-79520.712692
403.908498,-2812.782580,592.164754,-79827.150892
403.910995,-1036.288319,-1036.288319,-78448.178995
403.913492,4145.153275,3701.029710,-76762.768900
403.915989,-2516.700203,5773.606348,-77528.864398
403.918485,1184.329507,2812.782580,-79214.274493
403.920982,1924.535449,5477.523971,-74770.920605
403.923479,-6809.894666,-148.041188,-76456.330700
403.925975,444.123565,0.000000,-78601.398095
403.928472,3552.988522,1924.535449,-77682.083497
403.930969,-3404.947333,296.082377,-77528.864398
403.933465,-3256.906145,7402.059420,-77682.083497
403.935962,4145.153275,4737.318029,-77528.864398
403.938459,-2072.576638,8142.265362,-76609.549800
403.940956,-2072.576638,4737.318029,-80286.808190
403.943452,4441.235652,3849.070898,-77835.302597
403.945949,-3552.988522,-888.247130,-75843.454302
403.948446,-2516.700203,-148.041188,-77835.302597
403.950942,3256.906145,-3997.112087,-78448.178995
403.953439,4145.153275,2516.700203,-77835.302597
403.955955,-3404.947333,-592.164754,-77528.864398
403.958471,-740.205942,-5329.482782,-79214.274493
403.960987,2220.617826,-6661.853478,-75843.454302
403.963503,-3108.864956,-6809.894666,-77222.426198
403.966019,5181.441594,-8142.265362,-79827.150892
403.968535,296.082377,-6809.894666,-78294.959896
403.971051,-5181.441594,-4145.153275,-77375.645298
403.973567,1628.453072,-2368.659014,-77222.426198
403.976083,4885.359217,-3997.112087,-77988.521696
403.978599,-4589.276840,-888.247130,-75690.235202
403.981114,592.164754,-7402.059420,-78448.178995
403.983630,1332.370696,-13767.830521,-77528.864398
403.986146,-2516.700203,-2516.700203,-76609.549800
403.988662,-1628.453072,-1628.453072,-79367.493593
403.991178,3997.112087,-11103.089130,-77528.864398
403.993694,-3849.070898,444.123565,-73851.606007
403.996210,-2368.659014,740.205942,-76456.330700
403.998726,4737.318029,-7550.100608,-76609.549800
404.001242,1628.453072,-3552.988522,-77069.207099
404.003758,-2072.576638,-10362.883188,-81052.903688
404.006274,4441.235652,-9622.677246,-78907.836294
404.008790,740.205942,-10658.965565,-75843.454302
404.011306,-5181.441594,-740.205942,-75996.673402
404.013822,5033.400406,-3849.070898,-80133.589091
404.016338,4293.194464,1184.329507,-79214.274493
404.018854,-2960.823768,-4293.194464,-76762.768900
404.021370,-2072.576638,-4441.235652,-77375.645298
404.023886,-296.082377,-3404.947333,-76915.987999
404.026401,-5477.523971,1776.494261,-76303.111601
404.028917,1332.370696,5033.400406,-77375.645298
404.031433,2368.659014,7254.018232,-76915.987999
404.033949,-6809.894666,5773.606348,-76303.111601
404.036465,0.000000,5921.647536,-77375.645298
404.038981,3108.864956,4145.153275,-76303.111601
404.041497,2072.576638,1628.453072,-77835.302597
404.044013,-1480.411884,1628.453072,-77835.302597
404.046529,4145.153275,-1480.411884,-77988.521696
404.049045,-1480.411884,1332.370696,-76456.330700
404.051561,-1776.494261,2516.700203,-78448.178995
404.054077,9178.553681,8290.306550,-77835.302597
404.056609,1184.329507,888.247130,-78141.740796
404.059140,-3552.988522,-444.123565,-77528.864398
404.061672,3552.988522,296.082377,-77835.302597
404.064204,1776.494261,2812.782580,-77375.645298
404.066735,-2516.700203,2072.576638,-77375.645298
404.069267,-740.205942,5921.647536,-77835.302597
404.071799,1184.329507,4737.318029,-77222.426198
404.074330,-6365.771101,9030.512492,-76149.892501
404.076862,2516.700203,5625.565159,-78754.617194
404.079394,3404.947333,5921.647536,-77682.083497
404.081925,-1628.453072,1628.453072,-77375.645298
404.084457,-2812.782580,-2664.741391,-78448.178995
404.086989,4145.153275,-1924.535449,-77222.426198
404.089520,-3404.947333,888.247130,-77375.645298
404.092052,-1628.453072,-1924.535449,-78294.959896
404.094584,3108.864956,-6069.688724,-77069.207099
404.097115,-4589.276840,-7105.977043,-75996.673402
404.099647,-3849.070898,-6957.935855,-77528.864398
404.102179,2220.617826,-13471.748144,-79061.055394
404.104711,-2368.659014,-4441.235652,-75077.358804
404.107242,-2664.741391,-6365.771101,-78907.836294
404.109774,3404.947333,1036.288319,-78141.740796
404.112306,1184.329507,-4441.235652,-78141.740796
404.114837,-1036.288319,-1036.288319,-77528.864398
404.117369,3849.070898,-3849.070898,-79827.150892
404.119901,1924.535449,-2812.782580,-79061.055394
404.122432,-4737.318029,-10362.883188,-77375.645298
404.124964,5033.400406,592.164754,-77528.864398
404.127496,3256.906145,-3552.988522,-79367.493593
404.130027,-3701.029710,-10362.883188,-75996.673402
404.132559,-4145.153275,-444.123565,-78448.178995
404.135091,1480.411884,-10510.924376,-78754.617194
404.137622,-3552.988522,-1184.329507,-75537.016103
404.140154,-1036.288319,-12139.377449,-77528.864398
404.142686,1628.453072,-7994.224174,-76609.549800
404.145218,-5181.441594,-11695.253884,-77835.302597
404.147749,-1332.370696,-444.123565,-76303.111601
404.150281,0.000000,-4441.235652,-79980.369991
404.152813,3404.947333,-296.082377,-77375.645298
404.155344,-3552.988522,-2664.741391,-77682.083497
404.157889,4589.276840,-3701.029710,-77988.521696
404.160433,740.205942,1776.494261,-78294.959896
404.162977,-2220.617826,5033.400406,-78907.836294
404.165522,7846.182985,4885.359217,-79061.055394
404.168066,2220.617826,7254.018232,-76609.549800
404.170610,-4293.194464,7254.018232,-77835.302597
404.173155,-2960.823768,5329.482782,-77682.083497
404.175699,3256.906145,2516.700203,-77069.207099
404.178243,-4589.276840,2368.659014,-76762.768900
404.180787,148.041188,-740.205942,-79367.493593
404.183332,444.123565,-740.205942,-77069.207099
404.185876,-5773.606348,2960.823768,-76456.330700
404.188420,1628.453072,9030.512492,-77375.645298
404.190965,3849.070898,1332.370696,-77222.426198
404.193509,-4145.153275,-2368.659014,-77528.864398
404.196053,-2368.659014,3997.112087,-77988.521696
404.198598,3552.988522,148.041188,-79214.274493
404.201142,740.205942,4145.153275,-77988.521696
404.203686,0.000000,5625.565159,-79214.274493
404.206231,592.164754,4441.235652,-78907.836294
404.208775,3108.864956,8290.306550,-76456.330700
404.211319,-3849.070898,5625.565159,-76915.987999
404.213864,2812.782580,3552.988522,-79673.931792
404.216408,2812.782580,740.205942,-77988.521696
404.218952,-4293.194464,-2368.659014,-77835.302597
404.221497,-2960.823768,1332.370696,-78294.959896
404.224041,1776.494261,-2664.741391,-78907.836294
404.226585,-2368.659014,-2220.617826,-76456.330700
404.229130,-1628.453072,-3701.029710,-78294.959896
404.231674,3552.988522,-9030.512492,-78294.959896
404.234218,-3404.947333,-7698.141797,-76149.892501
404.236763,-1480.411884,-10214.842000,-79520.712692
404.239307,2368.659014,-5921.647536,-78907.836294
404.241851,3552.988522,-4737.318029,-77069.207099
404.244396,-3997.112087,-2072.576638,-77835.302597
404.246940,3997.112087,-1628.453072,-79214.274493
404.249484,1332.370696,-3849.070898,-77528.864398
404.252028,-3404.947333,-5033.400406,-77069.207099
404.254573,2960.823768,-2516.700203,-77988.521696
404.257117,2072.576638,-4441.235652,-75537.016103
404.259670,-4885.359217,-7105.977043,-79520.712692
404.262224,-1480.411884,1480.411884,-75843.454302
404.264777,2072.576638,-8142.265362,-77375.645298
404.267330,-7550.100608,-3849.070898,-76456.330700
404.269884,-1628.453072,-7105.977043,-79980.369991
404.272437,2368.659014,-10955.047942,-75843.454302
404.274991,-3701.029710,-6957.935855,-74617.701505
404.277544,-2368.659014,-9030.512492,-80133.589091
404.280097,592.164754,-7994.224174,-77682.083497
404.282651,-3552.988522,-3849.070898,-76762.768900
404.285204,-1628.453072,1036.288319,-77988.521696
404.287757,3701.029710,-1924.535449,-77528.864398
404.290311,2368.659014,-3552.988522,-75843.454302
404.292864,-5477.523971,888.247130,-78448.178995
404.295417,5033.400406,2664.741391,-80746.465489
404.297971,3108.864956,5773.606348,-77222.426198
404.300524,-1332.370696,9918.759623,-77069.207099
404.303077,3552.988522,5181.441594,-77528.864398
404.305631,148.041188,4885.359217,-77375.645298
404.308184,-4737.318029,2516.700203,-75996.673402
404.310737,148.041188,2072.576638,-78601.398095
404.313291,1924.535449,-1628.453072,-77528.864398
404.315844,-5773.606348,444.123565,-75537.016103
404.318397,-1628.453072,2220.617826,-78448.178995
404.320951,2368.659014,6661.853478,-76303.111601
404.323504,-4145.153275,2812.782580,-75690.235202
404.326057,-444.123565,-3256.906145,-78907.836294
404.328611,6069.688724,7254.018232,-77222.426198
404.331164,-1480.411884,-1776.494261,-77835.302597
404.333717,-2960.823768,9918.759623,-78907.836294
404.336271,5625.565159,296.082377,-81359.341888
404.338824,444.123565,8290.306550,-75230.577904
404.341377,-1776.494261,7105.977043,-77988.521696
404.343931,5625.565159,6513.812290,-79367.493593
404.346484,1924.535449,4145.153275,-78448.178995
404.349037,-2072.576638,3849.070898,-79061.055394
404.351591,888.247130,-3404.947333,-79673.931792
404.354144,888.247130,1036.288319,-77222.426198
404.356697,-7105.977043,1184.329507,-76609.549800
404.359251,888.247130,-3849.070898,-77835.302597
404.361812,4293.194464,-5477.523971,-78294.959896
404.364372,-3849.070898,-7254.018232,-77835.302597
404.366933,-1332.370696,-7698.141797,-78294.959896
404.369494,3404.947333,-10066.800811,-76762.768900
404.372055,-3404.947333,-6217.729913,-76609.549800
404.374616,740.205942,-2516.700203,-78448.178995
404.377176,2960.823768,-4293.194464,-76762.768900
404.379737,-1628.453072,-1036.288319,-77375.645298
404.382298,-1776.494261,-2664.741391,-79367.493593
404.384859,4589.276840,-9030.512492,-80286.808190
404.387420,-2664.741391,-9178.553681,-76303.111601
404.389980,-2220.617826,-1332.370696,-78141.740796
404.392541,2072.576638,-8734.430116,-78448.178995
404.395102,-3849.070898,-148.041188,-76303.111601
404.397663,-3108.864956,-2516.700203,-76303.111601
404.400224,2960.823768,-6661.853478,-77069.207099
404.402784,1628.453072,-6069.688724,-78294.959896
404.405345,-3108.864956,-8438.347739,-78294.959896
404.407906,2220.617826,-8290.306550,-78141.740796
404.410467,2220.617826,-8290.306550,-77069.207099
404.413028,-3997.112087,-3701.029710,-78141.740796
404.415588,2072.576638,-2072.576638,-79520.712692
404.418149,6217.729913,-3108.864956,-78601.398095
404.420710,-3108.864956,-3404.947333,-77528.864398
404.423271,-2220.617826,-148.041188,-76915.987999
404.425832,2220.617826,-888.247130,-78601.398095
404.428392,-2516.700203,4885.359217,-75996.673402
404.430953,-888.247130,6809.894666,-78448.178995
404.433514,2960.823768,3997.112087,-77222.426198
404.436075,-5625.565159,6217.729913,-75690.235202
404.438636,-2368.659014,4737.318029,-77988.521696
404.441196,6513.812290,1480.411884,-78601.398095
404.443757,2812.782580,2072.576638,-77682.083497
404.446318,-2220.617826,3701.029710,-78754.617194
404.448879,2960.823768,-148.041188,-79367.493593
404.451440,1628.453072,6661.853478,-76149.892501
404.454000,-1480.411884,6069.688724,-78601.398095
404.456561,5033.400406,2812.782580,-81052.903688
404.459122,1924.535449,-444.123565,-77222.426198
404.461683,-5477.523971,888.247130,-78448.178995
404.464206,-1776.494261,4885.359217,-76609.549800
404.466730,2220.617826,5181.441594,-76915.987999
404.469254,-3849.070898,6809.894666,-77988.521696
404.471777,-1776.494261,6217.729913,-77835.302597
404.474301,888.247130,5033.400406,-76303.111601
404.476824,-6069.688724,6365.771101,-75537.016103
404.479348,888.247130,3108.864956,-79673.931792
404.481872,2664.741391,-1924.535449,-77682.083497
404.484395,444.123565,740.205942,-77375.645298
404.486919,-4145.153275,1184.329507,-78754.617194
404.489442,5033.400406,-4293.194464,-78448.178995
404.491966,2516.700203,-5773.606348,-77988.521696
404.494490,-1480.411884,-5181.441594,-78448.178995
404.497013,5181.441594,-11251.130318,-79520.712692
404.499537,1628.453072,-6957.935855,-77069.207099
404.502061,-3256.906145,-6513.812290,-78754.617194
404.504584,4441.235652,-6069.688724,-79214.274493
404.507108,3404.947333,-1332.370696,-76762.768900
404.509631,-5329.482782,-3404.947333,-76149.892501
404.512155,148.041188,-1480.411884,-78141.740796
404.514679,1332.370696,-4293.194464,-77682.083497
404.517202,-4885.359217,-10510.924376,-77069.207099
404.519726,592.164754,-1332.370696,-77682.083497
404.522249,740.205942,-4293.194464,-76915.987999
404.524773,-4737.318029,-1480.411884,-75537.016103
404.527297,444.123565,-5921.647536,-77222.426198
404.529820,2960.823768,-10362.883188,-78141.740796
404.532344,1776.494261,-6069.688724,-76762.768900
404.534867,-1924.535449,-8586.388927,-80286.808190
404.537391,3997.112087,-12731.542202,-78907.836294
404.539915,-5033.400406,-6957.935855,-75690.235202
404.542438,-1332.370696,-1776.494261,-76762.768900
404.544962,2368.659014,-4293.194464,-78294.959896
404.547486,-2516.700203,148.041188,-76915.987999
404.550009,-4293.194464,-1184.329507,-76149.892501
404.552533,1480.411884,740.205942,-79061.055394
404.555056,740.205942,2960.823768,-78448.178995
404.557580,-2664.741391,7105.977043,-77528.864398
404.560104,3701.029710,7698.141797,-77682.083497
404.562627,2220.617826,4885.359217,-76456.330700
404.565123,-4441.235652,5329.482782,-77682.083497
404.567619,2664.741391,2960.823768,-79367.493593
404.570115,3108.864956,2812.782580,-77682.083497
404.572611,-2516.700203,1184.329507,-77528.864398
404.575107,-4885.359217,3701.029710,-78294.959896
404.577603,1628.453072,1628.453072,-76609.549800
404.580099,-5033.400406,1036.288319,-75230.577904
404.582595,0.000000,2960.823768,-78907.836294
404.585091,4885.359217,4737.318029,-78294.959896
404.587587,-4737.318029,-3108.864956,-76303.111601
404.590083,-4441.235652,3997.112087,-78294.959896
404.592579,2516.700203,1776.494261,-76915.987999
404.595075,4145.153275,3997.112087,-79061.055394
404.597571,-2368.659014,9622.677246,-76456.330700
404.600067,4441.235652,6809.894666,-77835.302597
404.602563,1184.329507,8290.306550,-77682.083497
404.605059,-3108.864956,2368.659014,-79367.493593
404.607555,7105.977043,1480.411884,-79827.150892
404.610051,3552.988522,-2072.576638,-76762.768900
404.612547,-4145.153275,444.123565,-79061.055394
404.615043,3701.029710,-1480.411884,-79214.274493
404.617539,2072.576638,-6809.894666,-76762.768900
404.620035,3256.906145,-8882.471304,-77528.864398
404.622531,-2960.823768,-4293.194464,-78754.617194
404.625027,2516.700203,-9622.677246,-80133.589091
404.627523,2368.659014,-4441.235652,-77835.302597
404.630019,-2516.700203,-4737.318029,-78601.398095
404.632515,5625.565159,-444.123565,-77528.864398
404.635011,1332.370696,-3552.988522,-78754.617194
404.637507,-2812.782580,-2812.782580,-76762.768900
404.640003,-3404.947333,-8586.388927,-78601.398095
404.642499,1480.411884,2960.823768,-77069.207099
404.644995,-4145.153275,-12879.583391,-79520.712692
404.647491,-1332.370696,-3404.947333,-78601.398095
404.649987,2664.741391,-148.041188,-74464.482406
404.652483,-8586.388927,-6513.812290,-75843.454302
404.654979,1332.370696,-5033.400406,-77835.302597
404.657475,3997.112087,-13323.706956,-78294.959896
404.659971,296.082377,-6365.771101,-77528.864398
404.662467,-2812.782580,-10214.842000,-80286.808190
404.664983,2960.823768,-4589.276840,-76762.768900
404.667500,-1776.494261,-4441.235652,-78141.740796
404.670016,1036.288319,-148.041188,-78754.617194
404.672533,5181.441594,-4145.153275,-78294.959896
404.675049,296.082377,-1184.329507,-77375.645298
404.677565,-3849.070898,2220.617826,-78907.836294
404.680082,4885.359217,444.123565,-79827.150892
404.682598,2664.741391,6365.771101,-78448.178995
404.685115,-2960.823768,9918.759623,-75996.673402
404.687631,148.041188,4589.276840,-77682.083497
404.690148,740.205942,3256.906145,-77222.426198
404.692664,-7698.141797,1480.411884,-77375.645298
404.695180,2960.823768,2368.659014,-78601.398095
404.697697,3701.029710,2072.576638,-77222.426198
404.700213,-3701.029710,3552.988522,-77988.521696
404.702730,296.082377,592.164754,-80286.808190
404.705246,3256.906145,1036.288319,-79214.274493
404.707762,-592.164754,3256.906145,-76303.111601
404.710279,-740.205942,148.041188,-78141.740796
404.712795,3701.029710,2368.659014,-77835.302597
404.715312,-4885.359217,2960.823768,-77682.083497
404.717828,-296.082377,6513.812290,-78294.959896
404.720345,3256.906145,1776.494261,-78907.836294
404.722861,-1924.535449,12731.542202,-74770.920605
404.725377,-4885.359217,7105.977043,-77069.207099
404.727894,4737.318029,6069.688724,-78907.836294
404.730410,3256.906145,-740.205942,-79367.493593
404.732927,-740.205942,-740.205942,-77069.207099
404.735443,4589.276840,-296.082377,-78448.178995
404.737960,2812.782580,296.082377,-77069.207099
404.740476,-4145.153275,-6069.688724,-78141.740796
404.742992,5625.565159,-4885.359217,-78907.836294
404.745509,2516.700203,-8142.265362,-77069.207099
404.748025,-3701.029710,-9178.553681,-77528.864398
404.750542,-3108.864956,-4293.194464,-77069.207099
404.753058,444.123565,-8438.347739,-77988.521696
404.755574,-2812.782580,-4737.318029,-76609.549800
404.758091,-740.205942,-1776.494261,-77069.207099
404.760607,1332.370696,-3701.029710,-76456.330700
404.763124,-3256.906145,-5773.606348,-75996.673402
404.765651,-1776.494261,-2960.823768,-76456.330700
404.768184,2072.576638,-11843.295072,-78601.398095
404.770717,4737.318029,-2368.659014,-77682.083497
404.773251,-5181.441594,-7846.182985,-78907.836294
404.775784,5625.565159,-2664.741391,-79980.369991
404.778317,-592.164754,-6661.853478,-77375.645298
404.780850,-2960.823768,-4441.235652,-76303.111601
404.783383,6957.935855,-9030.512492,-77835.302597
404.785917,1184.329507,-7550.100608,-79673.931792
404.788450,-3404.947333,-7994.224174,-80440.027290
404.790983,-3701.029710,-2664.741391,-78294.959896
404.793516,2960.823768,-5625.565159,-78141.740796
404.796049,-3997.112087,-2960.823768,-75996.673402
404.798583,1628.453072,-2960.823768,-77528.864398
404.801116,1480.411884,1184.329507,-77682.083497
404.803649,-5477.523971,5921.647536,-78294.959896
404.806182,740.205942,8290.306550,-77835.302597
404.808716,4589.276840,6217.729913,-76609.549800
404.811249,-4441.235652,6513.812290,-75843.454302
404.813782,-4145.153275,6217.729913,-77222.426198
404.816315,3256.906145,-1332.370696,-78907.836294
404.818848,-444.123565,1924.535449,-77835.302597
404.821382,1480.411884,4589.276840,-78294.959896
404.823915,4885.359217,-1628.453072,-78141.740796
404.826448,-1924.535449,8142.265362,-76456.330700
404.828981,-2368.659014,2960.823768,-80286.808190
404.831514,6661.853478,-1628.453072,-77835.302597
404.834048,740.205942,3108.864956,-75690.235202
404.836581,-5329.482782,4145.153275,-75383.797003
404.839114,-148.041188,2960.823768,-78294.959896
404.841647,2812.782580,4885.359217,-77988.521696
404.844180,-3552.988522,7105.977043,-77375.645298
404.846726,1332.370696,9178.553681,-76609.549800
404.849272,2664.741391,8142.265362,-77222.426198
404.851817,-4441.235652,5477.523971,-77222.426198
404.854363,2664.741391,-592.164754,-79520.712692
404.856908,3256.906145,-2220.617826,-76915.987999
404.859454,-4441.235652,-592.164754,-77528.864398
404.861999,-2220.617826,-4293.194464,-77835.302597
404.864545,2812.782580,-8882.471304,-77682.083497
404.867090,-3849.070898,-7846.182985,-76609.549800
404.869636,-2220.617826,-6217.729913,-78907.836294
404.872182,2220.617826,-11251.130318,-78754.617194
404.874727,-4145.153275,-5625.565159,-77375.645298
404.877273,-2072.576638,-2664.741391,-77375.645298
404.879818,2072.576638,-2664.741391,-77988.521696
404.882364,3701.029710,-1332.370696,-76762.768900
404.884909,-4441.235652,-4441.235652,-77222.426198
404.887455,6069.688724,-3108.864956,-78601.398095
404.890000,1480.411884,-10807.006753,-79520.712692
404.892546,-2368.659014,148.041188,-77375.645298
404.895092,5625.565159,-1480.411884,-77835.302597
404.897637,3849.070898,-8438.347739,-77988.521696
404.900183,-1776.494261,-2220.617826,-77375.645298
404.902728,-1628.453072,-9178.553681,-77222.426198
404.905274,2664.741391,-9326.594869,-76762.768900
404.907819,-1776.494261,-8734.430116,-78448.178995
404.910365,-2220.617826,-6957.935855,-78907.836294
404.912910,1184.329507,-8882.471304,-75843.454302
404.915456,-5477.523971,-3256.906145,-75843.454302
404.918002,148.041188,-1480.411884,-77222.426198
404.920547,888.247130,-5329.482782,-78601.398095
404.923093,-3997.112087,148.041188,-76149.892501
404.925638,-5477.523971,6069.688724,-78294.959896
404.928184,7994.224174,7698.141797,-79367.493593
404.930729,0.000000,8438.347739,-78601.398095
404.933275,-2960.823768,5329.482782,-78294.959896
404.935820,3552.988522,4145.153275,-77528.864398
404.938366,-148.041188,1036.288319,-78294.959896
404.940912,-2220.617826,4885.359217,-78601.398095
404.943457,6661.853478,-444.123565,-80593.246390
404.946003,1480.411884,2220.617826,-76915.987999
404.948520,-6809.894666,740.205942,-75383.797003
404.951037,-1332.370696,9918.759623,-75996.673402
404.953554,2664.741391,-1332.370696,-79827.150892
404.956071,-3701.029710,3701.029710,-77528.864398
404.958589,0.000000,-888.247130,-78294.959896
404.961106,740.205942,5033.400406,-76303.111601
404.963623,-6069.688724,5921.647536,-75996.673402
404.966140,1184.329507,7105.977043,-79214.274493
404.968657,4293.194464,3997.112087,-79673.931792
404.971175,1332.370696,8586.388927,-76915.987999
404.973692,-2220.617826,5625.565159,-77835.302597
404.976209,6217.729913,592.164754,-78448.178995
404.978726,296.082377,-3108.864956,-77682.083497
404.981243,-1480.411884,2516.700203,-78294.959896
404.983761,4441.235652,-7994.224174,-78294.959896
404.986278,592.164754,-3849.070898,-76149.892501
404.988795,-2368.659014,-8586.388927,-77835.302597
404.991312,3404.947333,-8290.306550,-77069.207099
404.993829,1480.411884,-9178.553681,-78294.959896
404.996347,-2516.700203,-4589.276840,-76149.892501
404.998864,-2220.617826,-3701.029710,-78754.617194
405.001381,3256.906145,-3552.988522,-76762.768900
405.003898,-4737.318029,-2072.576638,-76609.549800
405.006415,2516.700203,-4885.359217,-77988.521696
405.008933,1924.535449,-7254.018232,-77835.302597
405.011450,-3256.906145,-3404.947333,-77682.083497
405.013967,-1332.370696,592.164754,-77682.083497
405.016484,2516.700203,-6809.894666,-79827.150892
405.019001,-2516.700203,-8142.265362,-77835.302597
405.021519,-888.247130,-3256.906145,-77835.302597
405.024036,2664.741391,-11103.089130,-76456.330700
405.026553,-1332.370696,-6217.729913,-77222.426198
405.029070,-444.123565,-10658.965565,-80593.246390
405.031587,3552.988522,-8586.388927,-79214.274493
405.034105,1036.288319,-2960.823768,-77528.864398
405.036622,-3701.029710,-3701.029710,-75843.454302
405.039139,-148.041188,-444.123565,-78907.836294
405.041656,3997.112087,-3552.988522,-78141.740796
405.044173,-1776.494261,6661.853478,-76456.330700
405.046691,-3256.906145,5625.565159,-78448.178995
405.049225,4441.235652,4885.359217,-77988.521696
405.051759,-4737.318029,5181.441594,-77069.207099
405.054293,0.000000,7402.059420,-76762.768900
405.056827,2812.782580,-148.041188,-78601.398095
405.059362,3849.070898,3997.112087,-76303.111601
405.061896,-1628.453072,296.082377,-78907.836294
405.064430,6365.771101,1628.453072,-77988.521696
405.066964,-444.123565,444.123565,-78448.178995
405.069498,-1628.453072,12139.377449,-76609.549800
405.072033,2664.741391,-1332.370696,-79214.274493
405.074567,2516.700203,1184.329507,-77682.083497
405.077101,-3108.864956,7994.224174,-77682.083497
405.079635,5033.400406,1332.370696,-78141.740796
405.082170,1332.370696,6661.853478,-77528.864398
405.084704,-4885.359217,1776.494261,-77375.645298
405.087238,-2664.741391,12139.377449,-75690.235202
405.089772,1776.494261,2664.741391,-79061.055394
405.092306,-4885.359217,8734.430116,-75843.454302
405.094841,-1480.411884,-1184.329507,-78907.836294
405.097375,1184.329507,-888.247130,-77069.207099
405.099909,-5329.482782,-3552.988522,-77069.207099
405.102443,-2664.741391,-2960.823768,-79367.493593
405.104977,3849.070898,-6661.853478,-79367.493593
405.107512,1628.453072,-10362.883188,-78141.740796
405.110046,-2220.617826,-6513.812290,-77069.207099
405.112580,4737.318029,-10362.883188,-78601.398095
405.115114,296.082377,-4737.318029,-78754.617194
405.117648,-3256.906145,-592.164754,-78754.617194
405.120183,4145.153275,-3256.906145,-79061.055394
405.122717,2368.659014,-1184.329507,-76609.549800
405.125251,-3108.864956,-4737.318029,-75383.797003
405.127785,-1036.288319,-1036.288319,-76762.768900
405.130320,2368.659014,-11547.212695,-78754.617194
405.132854,-4737.318029,-2960.823768,-77375.645298
405.135388,1036.288319,-7698.141797,-79827.150892
405.137922,1332.370696,-2812.782580,-74924.139704
405.140456,-3849.070898,-7254.018232,-75537.016103
405.142991,-3108.864956,-4737.318029,-75230.577904
405.145525,2960.823768,-9622.677246,-79673.931792
405.148059,-3552.988522,-6957.935855,-79214.274493
405.150607,-2960.823768,-6957.935855,-78294.959896
405.153155,3404.947333,-6217.729913,-77069.207099
405.155703,148.041188,-3256.906145,-75690.235202
405.158252,0.000000,-1332.370696,-78907.836294
405.160800,2960.823768,-2516.700203,-79061.055394
405.163348,-1628.453072,6217.729913,-77222.426198
405.165896,444.123565,8586.388927,-78448.178995
405.168444,6069.688724,4885.359217,-79520.712692
405.170992,3552.988522,6809.894666,-75843.454302
405.173541,-5921.647536,5477.523971,-75690.235202
405.176089,296.082377,1480.411884,-78141.740796
405.178637,3256.906145,2516.700203,-77835.302597
405.181185,-2368.659014,-2516.700203,-78601.398095
405.183733,2072.576638,5477.523971,-78448.178995
405.186281,1332.370696,4293.194464,-77835.302597
405.188830,-5921.647536,4293.194464,-77835.302597
405.191378,-1332.370696,-296.082377,-78448.178995
405.193926,5477.523971,444.123565,-77069.207099
405.196474,-4885.359217,4293.194464,-77682.083497
405.199022,-2368.659014,6809.894666,-80593.246390
405.201570,3404.947333,148.041188,-80133.589091
405.204118,-3849.070898,7994.224174,-75230.577904
405.206667,-1332.370696,9178.553681,-77835.302597
405.209215,3849.070898,6069.688724,-78448.178995
405.211763,-4441.235652,3404.947333,-77682.083497
405.214311,-1924.535449,1332.370696,-78907.836294
405.216859,5477.523971,-1924.535449,-80440.027290
405.219407,3701.029710,-1480.411884,-77528.864398
405.221956,-3404.947333,-6069.688724,-77375.645298
405.224504,5477.523971,-6957.935855,-78907.836294
405.227052,2960.823768,-10214.842000,-77988.521696
405.229600,-3256.906145,-7550.100608,-77835.302597
405.232148,3997.112087,-6217.729913,-78448.178995
405.234696,2664.741391,-9770.718434,-78448.178995
405.237245,-1480.411884,592.164754,-75843.454302
405.239793,-1036.288319,-1480.411884,-77682.083497
405.242341,1776.494261,-6217.729913,-77528.864398
405.244889,-3108.864956,-3997.112087,-75690.235202
405.247437,-1924.535449,-11103.089130,-79827.150892
405.249985,1480.411884,-2072.576638,-76915.987999
405.252544,-2368.659014,-2664.741391,-77835.302597
405.255102,-740.205942,-8142.265362,-79214.274493
405.257661,5625.565159,-3108.864956,-78448.178995
405.260219,148.041188,-9918.759623,-77222.426198
405.262778,-2368.659014,-2220.617826,-76149.892501
405.265337,4737.318029,-11843.295072,-80440.027290
405.267895,2960.823768,-8290.306550,-77835.302597
405.270454,-4589.276840,-5033.400406,-78601.398095
405.273012,6513.812290,-3701.029710,-78448.178995
405.275571,-592.164754,-1776.494261,-78141.740796
405.278129,-1332.370696,-296.082377,-78907.836294
405.280688,-1184.329507,6661.853478,-78754.617194
405.283246,1184.329507,6217.729913,-77069.207099
405.285805,-5181.441594,6217.729913,-75996.673402
405.288363,-296.082377,8438.347739,-77528.864398
405.290922,3404.947333,1924.535449,-78294.959896
405.293480,-3552.988522,5921.647536,-75996.673402
405.296039,-1776.494261,-1776.494261,-79214.274493
405.298597,2664.741391,296.082377,-77069.207099
405.301156,-6365.771101,148.041188,-77222.426198
405.303714,-5625.565159,2516.700203,-77375.645298
405.306273,3849.070898,11103.089130,-77375.645298
405.308831,-592.164754,1776.494261,-79520.712692
405.311390,-888.247130,3997.112087,-78448.178995
405.313948,5329.482782,296.082377,-78294.959896
405.316507,592.164754,7698.141797,-75690.235202
405.319066,-1924.535449,5625.565159,-79061.055394
405.321624,6809.894666,3849.070898,-79827.150892
405.324183,2812.782580,6957.935855,-78141.740796
405.326741,-2960.823768,9030.512492,-77528.864398
405.329300,-296.082377,2960.823768,-78294.959896
405.331858,1924.535449,1628.453072,-76609.549800
405.334417,-3552.988522,148.041188,-76762.768900
405.336975,0.000000,-888.247130,-78448.178995
405.339534,1036.288319,-8142.265362,-77988.521696
405.342092,-4589.276840,-7105.977043,-77069.207099
405.344651,1184.329507,-11695.253884,-77682.083497
405.347209,5033.400406,-11103.089130,-77988.521696
405.349768,-592.164754,-7994.224174,-77222.426198
405.352326,-3404.947333,-2516.700203,-77988.521696
405.354893,3108.864956,-2812.782580,-79214.274493
405.357460,-3997.112087,-1184.329507,-77375.645298
405.360027,-592.164754,296.082377,-78601.398095
405.362594,4737.318029,-13767.830521,-77682.083497
405.365161,-5033.400406,-3552.988522,-75996.673402
405.367728,-2368.659014,-2368.659014,-79980.369991
405.370295,1628.453072,-9918.759623,-79673.931792
405.372862,1332.370696,-3108.864956,-80133.589091
405.375429,-3849.070898,-11103.089130,-78448.178995
405.377996,888.247130,-740.205942,-74924.139704
405.380563,1924.535449,-9474.636058,-76609.549800
405.383130,-3552.988522,-4885.359217,-79061.055394
405.385697,3997.112087,-13175.665768,-81206.122788
405.388264,1924.535449,-1332.370696,-76456.330700
405.390830,-3256.906145,-2220.617826,-75843.454302
405.393397,-1776.494261,-2664.741391,-77528.864398
405.395964,3108.864956,-3108.864956,-77988.521696
405.398531,-4145.153275,7550.100608,-77682.083497
405.401098,-1480.411884,9474.636058,-79673.931792
405.403665,3404.947333,7698.141797,-77222.426198
405.406232,-2664.741391,5921.647536,-76149.892501
405.408799,-1036.288319,5477.523971,-78448.178995
405.411366,2812.782580,-1776.494261,-79061.055394
405.413933,1776.494261,-1036.288319,-78448.178995
405.416500,-3404.947333,1924.535449,-77682.083497
405.419067,4737.318029,-148.041188,-78907.836294
405.421634,3404.947333,9770.718434,-76762.768900
405.424201,-3256.906145,5181.441594,-77835.302597
405.426768,6365.771101,4441.235652,-79673.931792
405.429335,1924.535449,-1036.288319,-78141.740796
405.431902,-2368.659014,7846.182985,-77069.207099
405.434468,5329.482782,5329.482782,-79214.274493
405.437035,1776.494261,1776.494261,-76762.768900
405.439602,-5033.400406,7846.182985,-76149.892501
405.442169,-1036.288319,8438.347739,-76915.987999
405.444736,296.082377,6513.812290,-77682.083497
405.447303,2072.576638,592.164754,-77222.426198
405.449870,-3256.906145,2664.741391,-77682.083497
405.452437,3849.070898,-2664.741391,-78294.959896
405.455004,740.205942,-3701.029710,-78448.178995
405.457578,-3701.029710,-9474.636058,-77222.426198
405.460151,-1628.453072,-11843.295072,-78601.398095
405.462725,0.000000,-11251.130318,-77069.207099
405.465299,-4145.153275,-9030.512492,-75383.797003
405.467872,-3108.864956,-2516.700203,-78448.178995
405.470446,2960.823768,-740.205942,-76456.330700
405.473020,-4589.276840,-1480.411884,-76915.987999
405.475593,1332.370696,-2516.700203,-77222.426198
405.478167,1184.329507,-5181.441594,-76915.987999
405.480741,296.082377,-8290.306550,-76915.987999
405.483314,-1628.453072,-7994.224174,-78907.836294
405.485888,6809.894666,-4885.359217,-80746.465489
405.488461,1924.535449,-2516.700203,-76915.987999
405.491035,-3849.070898,-7846.182985,-78141.740796
405.493609,3849.070898,-7105.977043,-77835.302597
405.496182,-2220.617826,-6957.935855,-78601.398095
405.498756,148.041188,-6513.812290,-78294.959896
405.501330,4293.194464,-12435.459826,-77528.864398
405.503903,2368.659014,-5921.647536,-75690.235202
405.506477,-3997.112087,-6513.812290,-75690.235202
405.509051,1776.494261,-1480.411884,-78601.398095
405.511624,2960.823768,3108.864956,-79520.712692
405.514198,-2960.823768,9326.594869,-78294.959896
405.516772,2220.617826,9770.718434,-76915.987999
405.519345,3108.864956,11399.171507,-76456.330700
405.521919,-4441.235652,6661.853478,-77528.864398
405.524493,1924.535449,5033.400406,-78141.740796
405.527066,3256.906145,-4293.194464,-79673.931792
405.529640,-1924.535449,296.082377,-77528.864398
405.532214,-2072.576638,1184.329507,-78907.836294
405.534787,4145.153275,5181.441594,-78294.959896
405.537361,-4145.153275,-3108.864956,-78448.178995
405.539935,-1036.288319,14359.995275,-76762.768900
405.542508,3701.029710,2072.576638,-79214.274493
405.545082,-2368.659014,-296.082377,-78448.178995
405.547655,-3552.988522,10510.924376,-79214.274493
405.550229,2516.700203,740.205942,-77988.521696
405.552803,3108.864956,10214.842000,-75383.797003
405.555376,-7105.977043,2516.700203,-78601.398095
405.557950,4589.276840,11843.295072,-78448.178995
405.560492,1776.494261,3404.947333,-79061.055394
405.563034,-740.205942,6661.853478,-76456.330700
405.565575,3552.988522,-2072.576638,-77988.521696
405.568117,3552.988522,0.000000,-77528.864398
405.570659,-4293.194464,-10658.965565,-77222.426198
405.573200,-2072.576638,-7846.182985,-77835.302597
405.575742,1332.370696,-15840.407159,-78448.178995
405.578284,-3997.112087,-9622.677246,-76609.549800
405.580825,-2516.700203,-7846.182985,-79061.055394
405.583367,2516.700203,-4293.194464,-75996.673402
405.585909,-3849.070898,296.082377,-76303.111601
405.588450,296.082377,2220.617826,-77682.083497
405.590992,2072.576638,-5033.400406,-77375.645298
405.593534,888.247130,-10807.006753,-77835.302597
405.596076,-3552.988522,-4885.359217,-77988.521696
405.598617,5773.606348,-7698.141797,-79827.150892
405.601159,1628.453072,-3849.070898,-77069.207099
405.603701,-2664.741391,-3108.864956,-77988.521696
405.606242,3404.947333,-5477.523971,-77528.864398
405.608784,0.000000,-8882.471304,-77682.083497
405.611326,-3552.988522,-3552.988522,-77835.302597
405.613867,444.123565,-9474.636058,-77988.521696
405.616409,1036.288319,-7105.977043,-76149.892501
405.618951,-4293.194464,-8142.265362,-76915.987999
405.621493,-1776.494261,-2960.823768,-77528.864398
405.624034,1776.494261,-3256.906145,-77835.302597
405.626576,-2368.659014,8734.430116,-77682.083497
405.629118,-296.082377,10214.842000,-77682.083497
405.631659,2368.659014,10362.883188,-77528.864398
405.634201,-6217.729913,8290.306550,-75996.673402
405.636743,-2960.823768,6513.812290,-77988.521696
405.639284,6217.729913,-2220.617826,-79520.712692
405.641826,2072.576638,-296.082377,-76456.330700
405.644368,-3404.947333,-148.041188,-79061.055394
405.646910,6217.729913,0.000000,-77988.521696
405.649451,740.205942,7698.141797,-77528.864398
405.651993,-1332.370696,6957.935855,-77528.864398
405.654535,5033.400406,4885.359217,-79673.931792
405.657076,296.082377,1628.453072,-78448.178995
405.659618,-3997.112087,6069.688724,-77375.645298
405.662171,592.164754,5181.441594,-78141.740796
405.664724,2812.782580,1776.494261,-76762.768900
405.667277,-5921.647536,8882.471304,-75843.454302
405.669830,740.205942,5921.647536,-78448.178995
405.672383,3404.947333,7402.059420,-77375.645298
405.674936,-3108.864956,2072.576638,-77835.302597
405.677489,1480.411884,2960.823768,-77835.302597
405.680042,2368.659014,-3108.864956,-76149.892501
405.682594,-2812.782580,-9474.636058,-77835.302597
405.685147,-3404.947333,-9178.553681,-78448.178995
405.687700,4589.276840,-15840.407159,-78907.836294
405.690253,-3108.864956,-10214.842000,-77835.302597
405.692806,-1036.288319,-7105.977043,-77682.083497
405.695359,3256.906145,-6217.729913,-77222.426198
405.697912,-1480.411884,296.082377,-76456.330700
405.700465,-3256.906145,148.041188,-79061.055394
405.703018,3256.906145,-3997.112087,-78754.617194
405.705571,1036.288319,-7254.018232,-78907.836294
405.708124,-4589.276840,-5477.523971,-77069.207099
405.710677,1924.535449,-5625.565159,-77988.521696
405.713230,3701.029710,-7254.018232,-77528.864398
405.715783,-3108.864956,-9030.512492,-78754.617194
405.718336,2516.700203,-6217.729913,-78754.617194
405.720889,592.164754,-6513.812290,-78294.959896
405.723441,-4441.235652,-3404.947333,-78448.178995
405.725994,-2220.617826,-9474.636058,-79827.150892
405.728547,4441.235652,-9918.759623,-77528.864398
405.731100,-3404.947333,-8586.388927,-75077.358804
405.733653,-2368.659014,-2812.782580,-77375.645298
405.736206,1480.411884,-3256.906145,-79367.493593
405.738759,-592.164754,9770.718434,-77528.864398
405.741312,-444.123565,9030.512492,-77988.521696
405.743865,4293.194464,10510.924376,-75843.454302
405.746418,-6069.688724,9622.677246,-76149.892501
405.748971,-2368.659014,7254.018232,-77835.302597
405.751524,4145.153275,-3256.906145,-80133.589091
405.754077,2812.782580,-592.164754,-76762.768900
405.756630,-4293.194464,1924.535449,-78294.959896
405.759183,6069.688724,4145.153275,-77988.521696
405.761736,-888.247130,-5181.441594,-78141.740796
405.764300,0.000000,17764.942608,-75537.016103
405.766863,2664.741391,5773.606348,-79061.055394
405.769425,1628.453072,-4293.194464,-79520.712692
405.771987,-2960.823768,11547.212695,-77528.864398
405.774549,-3404.947333,0.000000,-78601.398095
405.777112,2960.823768,8290.306550,-74004.825107
405.779674,-6217.729913,444.123565,-77375.645298
405.782236,-2220.617826,11695.253884,-76456.330700
405.784798,296.082377,-444.123565,-79673.931792
405.787361,-5033.400406,6661.853478,-77222.426198
405.789923,-888.247130,-1628.453072,-77988.521696
405.792485,5921.647536,-6661.853478,-78448.178995
405.795047,-444.123565,-9622.677246,-77069.207099
405.797610,-3849.070898,-11399.171507,-78754.617194
405.800172,5625.565159,-13027.624579,-79673.931792
405.802734,1036.288319,-10362.883188,-78754.617194
405.805296,-3108.864956,-5181.441594,-78754.617194
405.807859,3997.112087,-3849.070898,-77375.645298
405.810421,2812.782580,2664.741391,-77222.426198
405.812983,-2960.823768,-1628.453072,-78141.740796
405.815545,148.041188,-6365.771101,-78141.740796
405.818108,1184.329507,-6513.812290,-76609.549800
405.820670,-6365.771101,-6957.935855,-77222.426198
405.823232,-296.082377,-3849.070898,-78294.959896
405.825794,4145.153275,-10510.924376,-77222.426198
405.828357,-2960.823768,-5477.523971,-75537.016103
405.830919,0.000000,-10214.842000,-78448.178995
405.833481,1924.535449,-3701.029710,-77222.426198
405.836043,-4885.359217,-7254.018232,-78141.740796
405.838606,-1036.288319,-5625.565159,-78294.959896
405.841168,6809.894666,-8734.430116,-77375.645298
405.843730,-3552.988522,-5329.482782,-75690.235202
405.846293,-1628.453072,-444.123565,-77375.645298
405.848855,4885.359217,2812.782580,-79827.150892
405.851417,1480.411884,10955.047942,-77682.083497
405.853979,-2516.700203,13619.789333,-79061.055394
405.856542,3849.070898,8586.388927,-77069.207099
405.859104,-2664.741391,6513.812290,-74924.139704
405.861666,-3404.947333,2220.617826,-77069.207099
405.864228,-2516.700203,-888.247130,-81206.122788
405.866798,4737.318029,-3849.070898,-78448.178995
405.869368,-4737.318029,-1332.370696,-75843.454302
405.871938,-1480.411884,10658.965565,-77069.207099
405.874508,1628.453072,592.164754,-77988.521696
405.877078,-1480.411884,2664.741391,-78141.740796
405.879648,-592.164754,8438.347739,-77988.521696
405.882218,4145.153275,1332.370696,-78294.959896
405.884788,2368.659014,8586.388927,-75843.454302
405.887357,-3256.906145,4145.153275,-77528.864398
405.889927,3404.947333,5625.565159,-78448.178995
405.892497,888.247130,6513.812290,-77988.521696
405.895067,-5033.400406,5181.441594,-77835.302597
405.897637,3108.864956,5625.565159,-78907.836294
405.900207,3108.864956,-296.082377,-78754.617194
405.902777,-1924.535449,-4293.194464,-77835.302597
405.905347,2664.741391,-11399.171507,-77682.083497
405.907917,3404.947333,-15544.324782,-78754.617194
405.910487,-3108.864956,-13619.789333,-77069.207099
405.913057,-444.123565,-7846.182985,-77682.083497
405.915626,3108.864956,-7846.182985,-77528.864398
405.918196,-5181.441594,-296.082377,-76762.768900
405.920766,-1184.329507,2664.741391,-78294.959896
405.923336,1924.535449,-5033.400406,-76915.987999
405.925906,-2220.617826,-444.123565,-75383.797003
405.928476,-2664.741391,-3997.112087,-77528.864398
405.931046,4441.235652,-6661.853478,-77375.645298
405.933616,3552.988522,-9030.512492,-78141.740796
405.936186,-1924.535449,-7846.182985,-78141.740796
405.938756,4589.276840,-8290.306550,-77988.521696
405.941326,1332.370696,-3701.029710,-75996.673402
405.943895,-4589.276840,-5477.523971,-78601.398095
405.946465,5625.565159,-5625.565159,-80286.808190
405.949041,2072.576638,-7402.059420,-79214.274493
405.951617,-3552.988522,-8438.347739,-75077.358804
405.954192,-2812.782580,-4293.194464,-76762.768900
405.956768,888.247130,-888.247130,-77375.645298
405.959343,-4145.153275,8142.265362,-77222.426198
405.961919,148.041188,12139.377449,-77528.864398
405.964495,2368.659014,11843.295072,-76915.987999
405.967070,-5477.523971,8882.471304,-75843.454302
405.969646,444.123565,5329.482782,-77069.207099
405.972221,2220.617826,-2664.741391,-80133.589091
405.974797,2220.617826,592.164754,-77835.302597
405.977373,-3701.029710,-1332.370696,-80133.589091
405.979948,4441.235652,444.123565,-77835.302597
405.982524,444.123565,8586.388927,-76609.549800
405.985099,-3552.988522,-1924.535449,-80133.589091
405.987675,8586.388927,14656.077652,-76456.330700
405.990251,-148.041188,-296.082377,-78141.740796
405.992826,-3701.029710,13471.748144,-77835.302597
405.995402,-444.123565,3701.029710,-78294.959896
405.997977,3404.947333,4441.235652,-76456.330700
406.000553,-5181.441594,4589.276840,-77682.083497
406.003129,2368.659014,3849.070898,-76762.768900
406.005704,1184.329507,3701.029710,-76303.111601
406.008280,-4441.235652,3404.947333,-78141.740796
406.010855,1776.494261,0.000000,-78294.959896
406.013431,3108.864956,-9474.636058,-77835.302597
406.016007,-5033.400406,-10510.924376,-76149.892501
406.018582,-2516.700203,-14359.995275,-79520.712692
406.021158,4441.235652,-13767.830521,-78601.398095
406.023734,-592.164754,-8290.306550,-77069.207099
406.026309,-1332.370696,2812.782580,-77988.521696
406.028885,4589.276840,-2664.741391,-78601.398095
406.031460,-1036.288319,-2072.576638,-76303.111601
406.034036,-1332.370696,-2516.700203,-77988.521696
406.036612,4589.276840,-5033.400406,-76762.768900
406.039187,-3552.988522,-7698.141797,-79367.493593
406.041763,-3997.112087,-2072.576638,-77528.864398
406.044338,1924.535449,-12287.418637,-78907.836294
406.046914,2960.823768,-4885.359217,-76456.330700
406.049490,-5033.400406,-11843.295072,-77528.864398
406.052070,1776.494261,-1184.329507,-76762.768900
406.054650,1184.329507,-10066.800811,-79520.712692
406.057230,-2220.617826,-3849.070898,-78907.836294
406.059809,2220.617826,-8586.388927,-78601.398095
406.062389,888.247130,-4737.318029,-75996.673402
406.064969,-5477.523971,1332.370696,-75230.577904
406.067549,-592.164754,5329.482782,-78907.836294
406.070129,3701.029710,10510.924376,-78754.617194
406.072709,-2368.659014,12731.542202,-76762.768900
406.075289,-3849.070898,11843.295072,-77835.302597
406.077869,888.247130,1036.288319,-77222.426198
406.080449,-5033.400406,1924.535449,-76149.892501
406.083029,-740.205942,-888.247130,-77988.521696
406.085609,2812.782580,-4737.318029,-78907.836294
406.088189,592.164754,1332.370696,-78141.740796
406.090769,-4441.235652,4589.276840,-78294.959896
406.093349,6513.812290,9918.759623,-76915.987999
406.095929,1480.411884,296.082377,-77988.521696
406.098509,-1776.494261,10807.006753,-77375.645298
406.101089,3404.947333,3849.070898,-79061.055394
406.103669,1480.411884,9770.718434,-77682.083497
406.106249,-4293.194464,5033.400406,-78601.398095
406.108829,7105.977043,5477.523971,-77835.302597
406.111409,1776.494261,4589.276840,-76915.987999
406.113989,-4885.359217,3108.864956,-77528.864398
406.116569,-2072.576638,3404.947333,-78294.959896
406.119149,1776.494261,-4589.276840,-77222.426198
406.121729,-6513.812290,-8734.430116,-76762.768900
406.124309,-1184.329507,-12583.501014,-77528.864398
406.126889,1480.411884,-14804.118840,-76149.892501
406.129469,-3997.112087,-13175.665768,-77069.207099
406.132049,-3256.906145,-6365.771101,-78294.959896
406.134629,4737.318029,-1184.329507,-77682.083497
406.137209,1184.329507,1332.370696,-77528.864398
406.139789,-2812.782580,-1184.329507,-78294.959896
406.142369,4589.276840,444.123565,-77835.302597
406.144949,1628.453072,-11103.089130,-78141.740796
406.147529,-3404.947333,-7402.059420,-77988.521696
406.150109,6661.853478,-3997.112087,-78141.740796
406.152689,1776.494261,-8882.471304,-78141.740796
406.155237,-4885.359217,-8734.430116,-75537.016103
406.157785,-1480.411884,-6957.935855,-76456.330700
406.160333,2812.782580,-7994.224174,-77835.302597
406.162881,-2960.823768,-4145.153275,-77375.645298
406.165429,740.205942,-8142.265362,-79367.493593
406.167977,2368.659014,-5181.441594,-75843.454302
406.170524,-5625.565159,-10066.800811,-76915.987999
406.173072,1036.288319,296.082377,-75996.673402
406.175620,3849.070898,4441.235652,-78448.178995
406.178168,1332.370696,15544.324782,-76762.768900
406.180716,-592.164754,13027.624579,-79214.274493
406.183264,6069.688724,8734.430116,-77375.645298
406.185812,-3108.864956,4441.235652,-77222.426198
406.188360,-3404.947333,888.247130,-77682.083497
406.190908,3997.112087,-4293.194464,-78907.836294
406.193456,-1628.453072,-888.247130,-77069.207099
406.196004,-3997.112087,-2516.700203,-78754.617194
406.198552,1924.535449,12879.583391,-77222.426198
406.201100,3108.864956,-888.247130,-75230.577904
406.203648,-2960.823768,9178.553681,-77069.207099
406.206196,1776.494261,6809.894666,-79520.712692
406.208744,296.082377,8438.347739,-77682.083497
406.211292,-5921.647536,5625.565159,-77222.426198
406.213840,4885.359217,6069.688724,-77835.302597
406.216388,1924.535449,3849.070898,-78294.959896
406.218936,-2516.700203,6069.688724,-77682.083497
406.221483,-2072.576638,5773.606348,-79980.369991
406.224031,2072.576638,-2516.700203,-78754.617194
406.226579,-2960.823768,-4885.359217,-76303.111601
406.229127,-2220.617826,-11251.130318,-78294.959896
406.231675,2368.659014,-13619.789333,-77835.302597
406.234223,-3701.029710,-14359.995275,-77528.864398
406.236771,-1480.411884,-10807.006753,-77682.083497
406.239319,3404.947333,-9474.636058,-76609.549800
406.241867,-6069.688724,-1036.288319,-77528.864398
406.244415,-3404.947333,3701.029710,-78448.178995
406.246963,4885.359217,-2072.576638,-78754.617194
406.249511,1776.494261,-3997.112087,-76456.330700
406.252059,-3256.906145,-6513.812290,-77375.645298
406.254607,4737.318029,-5625.565159,-79673.931792
406.257164,888.247130,-7698.141797,-78754.617194
406.259721,-2368.659014,-5033.400406,-77528.864398
406.262279,6365.771101,-9622.677246,-77528.864398
406.264836,296.082377,-10362.883188,-77069.207099
406.267393,-2812.782580,-7550.100608,-77375.645298
406.269951,-1184.329507,-7402.059420,-80286.808190
406.272508,3701.029710,-7402.059420,-77375.645298
406.275065,-5773.606348,-7698.141797,-76149.892501
406.277623,-888.247130,-1184.329507,-76762.768900
406.280180,1036.288319,2072.576638,-76762.768900
406.282737,3108.864956,11251.130318,-77988.521696
406.285294,-1628.453072,16432.571912,-77069.207099
406.287852,4441.235652,9918.759623,-78448.178995
406.290409,1184.329507,3108.864956,-75537.016103
406.292966,-5329.482782,-3701.029710,-77682.083497
406.295524,2368.659014,1480.411884,-77682.083497
406.298081,1924.535449,-5033.400406,-78141.740796
406.300638,-5181.441594,5329.482782,-76456.330700
406.303196,-1036.288319,-444.123565,-79673.931792
406.305753,3256.906145,8734.430116,-76762.768900
406.308310,-5181.441594,-148.041188,-76762.768900
406.310867,1184.329507,8882.471304,-76762.768900
406.313425,3701.029710,4145.153275,-78448.178995
406.315982,-1332.370696,5773.606348,-77682.083497
406.318539,-148.041188,7105.977043,-79367.493593
406.321097,5921.647536,5033.400406,-78141.740796
406.323654,-1776.494261,5181.441594,-76149.892501
406.326211,-1924.535449,5773.606348,-78601.398095
406.328769,2516.700203,-1184.329507,-78907.836294
406.331326,-1628.453072,-4589.276840,-76303.111601
406.333883,-148.041188,-9622.677246,-78448.178995
406.336441,0.000000,-13767.830521,-77375.645298
406.338998,2516.700203,-14063.912898,-77835.302597
406.341555,-6217.729913,-9770.718434,-77222.426198
406.344112,-444.123565,-4737.318029,-77835.302597
406.346670,2368.659014,-444.123565,-76609.549800
406.349227,-2960.823768,5329.482782,-77528.864398
406.351784,2220.617826,-2220.617826,-77988.521696
406.354342,2516.700203,-6217.729913,-76609.549800
406.356899,-3997.112087,-6217.729913,-77835.302597
406.359464,-592.164754,-4885.359217,-77988.521696
406.362030,3108.864956,-10510.924376,-78448.178995
406.364595,-1776.494261,-7254.018232,-76609.549800
406.367160,-3552.988522,-9178.553681,-79061.055394
406.369726,2812.782580,-10955.047942,-77528.864398
406.372291,-2516.700203,-5181.441594,-76915.987999
406.374856,148.041188,-6217.729913,-79214.274493
406.377422,5773.606348,-7698.141797,-78294.959896
406.379987,1036.288319,-8438.347739,-78754.617194
406.382552,-4145.153275,1776.494261,-76609.549800
406.385118,3849.070898,6661.853478,-79061.055394
406.387683,5329.482782,13767.830521,-77375.645298
406.390248,-1184.329507,15988.448347,-77835.302597
406.392813,4885.359217,11103.089130,-77835.302597
406.395379,-1036.288319,4293.194464,-78141.740796
406.397944,-1332.370696,1480.411884,-77682.083497
406.400509,5921.647536,888.247130,-77682.083497
406.403075,2220.617826,148.041188,-77682.083497
406.405640,-4885.359217,-2960.823768,-76609.549800
406.408205,-3701.029710,4589.276840,-78907.836294
406.410771,2368.659014,2812.782580,-76762.768900
406.413336,-2664.741391,7846.182985,-74924.139704
406.415901,-1776.494261,8438.347739,-77069.207099
406.418467,888.247130,5773.606348,-78907.836294
406.421032,-6365.771101,5921.647536,-77835.302597
406.423597,-3404.947333,4589.276840,-78754.617194
406.426163,8438.347739,5773.606348,-78601.398095
406.428728,0.000000,2812.782580,-76456.330700
406.431293,-3997.112087,7550.100608,-78294.959896
406.433859,3108.864956,-2220.617826,-78294.959896
406.436424,1184.329507,-7846.182985,-78294.959896
406.438989,-1924.535449,-9622.677246,-79367.493593
406.441555,5773.606348,-14063.912898,-78294.959896
406.444120,1184.329507,-13175.665768,-77682.083497
406.446685,-4589.276840,-8882.471304,-75843.454302
406.449251,-592.164754,-296.082377,-78601.398095
406.451816,3552.988522,1036.288319,-76456.330700
406.454381,-4885.359217,2072.576638,-75843.454302
406.456947,2516.700203,-2368.659014,-79827.150892
406.459512,1628.453072,-11695.253884,-77835.302597
406.462083,-2664.741391,740.205942,-74158.044206
406.464653,0.000000,-11547.212695,-77682.083497
406.467224,2220.617826,-7105.977043,-78141.740796
406.469794,-1332.370696,-11843.295072,-76762.768900
406.472365,-1924.535449,-7402.059420,-78448.178995
406.474935,2220.617826,-8734.430116,-79214.274493
406.477506,-444.123565,-5181.441594,-76303.111601
406.480077,148.041188,-4293.194464,-78601.398095
406.482647,4145.153275,-9030.512492,-78601.398095
406.485218,-3552.988522,-3108.864956,-77375.645298
406.487788,-1628.453072,2664.741391,-78448.178995
406.490359,4293.194464,7846.182985,-79214.274493
406.492929,3108.864956,11991.336260,-77375.645298
406.495500,-3552.988522,15248.242405,-76149.892501
406.498071,-888.247130,5033.400406,-76762.768900
406.500641,2220.617826,2960.823768,-77528.864398
406.503212,-4885.359217,-1184.329507,-78294.959896
406.505782,3849.070898,-3552.988522,-79673.931792
406.508353,3404.947333,4145.153275,-78294.959896
406.510923,-4293.194464,444.123565,-79673.931792
406.513494,-1480.411884,6809.894666,-78294.959896
406.516065,4145.153275,-3108.864956,-77528.864398
406.518635,-3552.988522,9326.594869,-74924.139704
406.521206,-1036.288319,7698.141797,-79520.712692
406.523776,2812.782580,7550.100608,-77988.521696
406.526347,-2812.782580,5033.400406,-77528.864398
406.528917,-148.041188,8438.347739,-76915.987999
406.531488,3256.906145,1776.494261,-77375.645298
406.534059,-2368.659014,3997.112087,-76456.330700
406.536629,-6365.771101,-148.041188,-79214.274493
406.539200,5181.441594,-8142.265362,-78754.617194
406.541770,3108.864956,-10066.800811,-76762.768900
406.544341,-1480.411884,-12287.418637,-78294.959896
406.546912,5773.606348,-13471.748144,-79367.493593
406.549482,2664.741391,-9918.759623,-77835.302597
406.552053,-3256.906145,-1036.288319,-77682.083497
406.554623,4737.318029,296.082377,-78448.178995
406.557194,3701.029710,-2220.617826,-77222.426198
406.559764,-4885.359217,-6365.771101,-76456.330700
406.562335,-2072.576638,-444.123565,-75383.797003
406.564910,-148.041188,-16876.695478,-77528.864398
406.567485,-3997.112087,-444.123565,-76609.549800
406.570060,-444.123565,-10066.800811,-79367.493593
406.572635,4293.194464,-11251.130318,-76762.768900
406.575210,-5477.523971,-11843.295072,-75537.016103
406.577785,-1332.370696,-5033.400406,-77222.426198
406.580359,592.164754,-9030.512492,-76456.330700
406.582934,1480.411884,-7402.059420,-79214.274493
406.585509,-3552.988522,-2220.617826,-78141.740796
406.588084,2516.700203,-5625.565159,-77375.645298
406.590659,592.164754,4293.194464,-77988.521696
406.593234,-3404.947333,10807.006753,-79367.493593
406.595809,8438.347739,14211.954086,-79673.931792
406.598384,-444.123565,14063.912898,-76915.987999
406.600959,-4737.318029,9030.512492,-78294.959896
406.603534,3552.988522,1332.370696,-77375.645298
406.606109,5181.441594,-3997.112087,-76149.892501
406.608684,-2368.659014,-1184.329507,-77835.302597
406.611259,1184.329507,592.164754,-79520.712692
406.613833,740.205942,-444.123565,-78907.836294
406.616408,-5329.482782,10362.883188,-73851.606007
406.618983,1332.370696,2664.741391,-77682.083497
406.621558,3849.070898,6365.771101,-76762.768900
406.624133,-3997.112087,6365.771101,-78448.178995
406.626708,-1628.453072,8734.430116,-78907.836294
406.629283,4293.194464,4293.194464,-78754.617194
406.631858,888.247130,6069.688724,-77069.207099
406.634433,148.041188,4737.318029,-77069.207099
406.637008,5921.647536,1628.453072,-77835.302597
406.639583,-2368.659014,-1036.288319,-77528.864398
406.642158,-2368.659014,-5329.482782,-78141.740796
406.644733,5477.523971,-13767.830521,-78294.959896
406.647308,-592.164754,-13175.665768,-77069.207099
406.649882,-3552.988522,-16136.489536,-77528.864398
406.652457,3552.988522,-7550.100608,-76149.892501
406.655032,592.164754,-3997.112087,-77528.864398
406.657607,-4737.318029,1184.329507,-77528.864398
406.660182,4589.276840,296.082377,-77528.864398
406.662757,4145.153275,2220.617826,-76303.111601
406.665332,-2960.823768,-3108.864956,-76149.892501
406.667910,-444.123565,-9326.594869,-79980.369991
406.670489,3552.988522,-11695.253884,-80286.808190
406.673067,-1628.453072,-7698.141797,-78601.398095
406.675645,-444.123565,-9326.594869,-77375.645298
406.678223,3108.864956,-11843.295072,-76303.111601
406.680802,-5625.565159,-5773.606348,-77222.426198
406.683380,-1332.370696,-5773.606348,-79520.712692
406.685958,6809.894666,-7994.224174,-79061.055394
406.688537,-2072.576638,-5477.523971,-76303.111601
406.691115,-3849.070898,0.000000,-78141.740796
406.693693,5033.400406,4441.235652,-78448.178995
406.696271,4589.276840,14359.995275,-76456.330700
406.698850,-2368.659014,12435.459826,-78907.836294
406.701428,-2812.782580,12435.459826,-77682.083497
406.704006,296.082377,-592.164754,-77528.864398
406.706584,-6513.812290,-592.164754,-75077.358804
406.709163,740.205942,-2812.782580,-78448.178995
406.711741,3256.906145,2516.700203,-76915.987999
406.714319,-4293.194464,-5477.523971,-78754.617194
406.716898,-5773.606348,-1924.535449,-80133.589091
406.719476,8290.306550,14359.995275,-77069.207099
406.722054,2072.576638,1036.288319,-77988.521696
406.724632,-2516.700203,15692.365970,-75230.577904
406.727211,3997.112087,4293.194464,-80899.684589
406.729789,2516.700203,9326.594869,-77222.426198
406.732367,-4589.276840,4293.194464,-79214.274493
406.734946,7994.224174,5921.647536,-77528.864398
406.737524,1184.329507,2812.782580,-77528.864398
406.740102,-5329.482782,-1036.288319,-76762.768900
406.742680,-740.205942,-6957.935855,-78294.959896
406.745259,1332.370696,-11251.130318,-77375.645298
406.747837,-3997.112087,-14359.995275,-75996.673402
406.750415,-1036.288319,-14359.995275,-78601.398095
406.752993,3701.029710,-12731.542202,-76762.768900
406.755572,-4293.194464,-5033.400406,-76609.549800
406.758150,-2220.617826,-740.205942,-78601.398095
406.760728,2664.741391,2812.782580,-76762.768900
406.763307,888.247130,-5477.523971,-78601.398095
406.765885,-2220.617826,-1628.453072,-77069.207099
406.768463,5625.565159,-10214.842000,-78448.178995
406.771042,-2220.617826,-3849.070898,-76149.892501
406.773623,-1924.535449,-9474.636058,-80133.589091
406.776204,6957.935855,-9622.677246,-77988.521696
406.778785,-296.082377,-9622.677246,-76609.549800
406.781366,-3552.988522,-6661.853478,-78907.836294
406.783947,-1332.370696,-8290.306550,-77682.083497
406.786528,2664.741391,-5625.565159,-77835.302597
406.789109,-4885.359217,-5477.523971,-78141.740796
406.791690,-1332.370696,2368.659014,-77835.302597
406.794271,1924.535449,5181.441594,-76456.330700
406.796852,-4293.194464,14359.995275,-77069.207099
406.799433,3256.906145,12879.583391,-78907.836294
406.802015,296.082377,13767.830521,-76762.768900
406.804596,-5477.523971,3404.947333,-77835.302597
406.807177,-3256.906145,-740.205942,-78907.836294
406.809758,4589.276840,-2960.823768,-77528.864398
406.812339,-4293.194464,-2960.823768,-77069.207099
406.814920,-2072.576638,5329.482782,-78754.617194
406.817501,2812.782580,148.041188,-79827.150892
406.820082,-3108.864956,6069.688724,-77222.426198
406.822663,148.041188,8586.388927,-75996.673402
406.825244,4737.318029,2664.741391,-77222.426198
406.827825,-3404.947333,11399.171507,-77682.083497
406.830406,-2516.700203,5773.606348,-77988.521696
406.832987,4145.153275,7994.224174,-77682.083497
406.835568,2960.823768,4293.194464,-77835.302597
406.838149,-1924.535449,4441.235652,-76456.330700
406.840730,4441.235652,-296.082377,-77682.083497
406.843311,1924.535449,-7994.224174,-77835.302597
406.845893,-5033.400406,-8142.265362,-77988.521696
406.848474,5181.441594,-17024.736666,-78907.836294
406.851055,3256.906145,-12879.583391,-77222.426198
406.853636,-2664.741391,-12139.377449,-76915.987999
406.856217,-2516.700203,1184.329507,-76456.330700
406.858798,1332.370696,-6217.729913,-78601.398095
406.861379,-2960.823768,4293.194464,-76456.330700
406.863960,-2072.576638,-3849.070898,-78907.836294
406.866541,2812.782580,-1924.535449,-73698.386908
406.869122,-5921.647536,-11843.295072,-78448.178995
406.871703,-2220.617826,-8290.306550,-78448.178995
406.874285,5181.441594,-9326.594869,-79061.055394
406.876868,4293.194464,-10658.965565,-76762.768900
406.879450,-3701.029710,-7846.182985,-77835.302597
406.882032,4293.194464,-9030.512492,-79214.274493
406.884614,296.082377,-5921.647536,-78141.740796
406.887197,-2960.823768,-5773.606348,-79673.931792
406.889779,3108.864956,-5773.606348,-79061.055394
406.892361,444.123565,2516.700203,-77988.521696
406.894944,-4441.235652,7698.141797,-77375.645298
406.897526,740.205942,14656.077652,-77528.864398
406.900108,3849.070898,12435.459826,-76149.892501
406.902690,-3552.988522,10510.924376,-75537.016103
406.905273,-1036.288319,2072.576638,-79061.055394
406.907855,1776.494261,-1924.535449,-76456.330700
406.910437,-3256.906145,-2072.576638,-75843.454302
406.913020,-148.041188,-5033.400406,-78294.959896
406.915602,3552.988522,5773.606348,-76609.549800
406.918184,-2072.576638,7846.182985,-74770.920605
406.920766,-1924.535449,9918.759623,-77682.083497
406.923349,5181.441594,4737.318029,-79673.931792
406.925931,-1036.288319,8586.388927,-77222.426198
406.928513,-1036.288319,10066.800811,-78754.617194
406.931095,4293.194464,4737.318029,-77835.302597
406.933678,-740.205942,5773.606348,-76762.768900
406.936260,-296.082377,4293.194464,-78754.617194
406.938842,5921.647536,2220.617826,-77375.645298
406.941425,4145.153275,-5625.565159,-77835.302597
406.944007,-5033.400406,-8586.388927,-77222.426198
406.946589,2220.617826,-13619.789333,-79214.274493
406.949171,3108.864956,-13027.624579,-76456.330700
406.951754,-2812.782580,-14063.912898,-79673.931792
406.954336,3404.947333,-8586.388927,-77835.302597
406.956918,0.000000,-1036.288319,-76609.549800
406.959500,-4441.235652,-296.082377,-77988.521696
406.962083,3256.906145,-444.123565,-77835.302597
406.964665,6217.729913,-8142.265362,-78754.617194
406.967247,-4441.235652,-4145.153275,-75383.797003
406.969830,-4737.318029,-11547.212695,-80133.589091
406.972412,2812.782580,-6513.812290,-78141.740796
406.974994,-3997.112087,-11991.336260,-76456.330700
406.977577,-2220.617826,-8586.388927,-76915.987999
406.980161,2220.617826,-12287.418637,-77222.426198
406.982744,-5033.400406,-5329.482782,-77222.426198
406.985327,-1776.494261,-7105.977043,-79520.712692
406.987911,5921.647536,-5033.400406,-79980.369991
406.990494,1628.453072,-1332.370696,-76456.330700
406.993077,-2516.700203,6069.688724,-78601.398095
406.995660,4737.318029,10658.965565,-78294.959896
406.998244,2072.576638,15248.242405,-76456.330700
407.000827,-2516.700203,14508.036463,-78448.178995
407.003410,3849.070898,8882.471304,-77988.521696
407.005994,2516.700203,-148.041188,-78294.959896
407.008577,-8290.306550,-2072.576638,-75996.673402
407.011160,3404.947333,148.041188,-78141.740796
407.013743,1628.453072,-7550.100608,-78601.398095
407.016327,-3552.988522,6365.771101,-77069.207099
407.018910,-1036.288319,10807.006753,-75996.673402
407.021493,1332.370696,0.000000,-76762.768900
407.024077,-3552.988522,10807.006753,-76456.330700
407.026660,-1924.535449,6957.935855,-79061.055394
407.029243,1924.535449,9622.677246,-76609.549800
407.031826,1184.329507,4441.235652,-79061.055394
407.034410,-1628.453072,7698.141797,-77682.083497
407.036993,6957.935855,592.164754,-78448.178995
407.039576,740.205942,-2072.576638,-77222.426198
407.042160,-3552.988522,-6069.688724,-77375.645298
407.044743,6661.853478,-11991.336260,-79061.055394
407.047326,-1184.329507,-15692.365970,-77069.207099
407.049910,-3849.070898,-11991.336260,-79061.055394
407.052493,3701.029710,-12435.459826,-79214.274493
407.055076,1776.494261,-2812.782580,-76149.892501
407.057659,-7254.018232,1480.411884,-77682.083497
407.060243,2960.823768,2812.782580,-77069.207099
407.062826,5773.606348,-5033.400406,-77069.207099
407.065409,-1776.494261,-3997.112087,-76456.330700
407.067993,-444.123565,-5773.606348,-79673.931792
407.070576,1036.288319,-9622.677246,-77682.083497
407.073159,-5625.565159,-9178.553681,-75843.454302
407.075742,1924.535449,-11547.212695,-77222.426198
407.078326,5329.482782,-9770.718434,-75230.577904
407.080910,-5625.565159,-8438.347739,-75996.673402
407.083494,-2220.617826,-4589.276840,-79827.150892
407.086078,2812.782580,-11251.130318,-79980.369991
407.088663,-2220.617826,-444.123565,-76149.892501
407.091247,-2516.700203,4441.235652,-78294.959896
407.093831,2812.782580,11103.089130,-77682.083497
407.096415,-3404.947333,11843.295072,-77375.645298
407.098999,-592.164754,15100.201217,-76456.330700
407.101584,296.082377,5033.400406,-78448.178995
407.104168,2812.782580,1184.329507,-77528.864398
407.106752,-4441.235652,-5329.482782,-77375.645298
407.109336,6365.771101,-2072.576638,-78754.617194
407.111920,148.041188,3552.988522,-78448.178995
407.114505,-2516.700203,2664.741391,-77988.521696
407.117089,2960.823768,6069.688724,-77682.083497
407.119673,2960.823768,6957.935855,-75537.016103
407.122257,-4737.318029,9770.718434,-78141.740796
407.124842,-3256.906145,10807.006753,-79367.493593
407.127426,4441.235652,6069.688724,-78294.959896
407.130010,1924.535449,7254.018232,-75843.454302
407.132594,-3108.864956,5181.441594,-78141.740796
407.135178,4145.153275,3849.070898,-77988.521696
407.137763,2960.823768,-4441.235652,-77682.083497
407.140347,-3256.906145,-8882.471304,-75996.673402
407.142931,4737.318029,-13767.830521,-78754.617194
407.145515,2812.782580,-14508.036463,-76456.330700
407.148099,-6513.812290,-14508.036463,-77528.864398
407.150684,740.205942,-7698.141797,-78141.740796
407.153268,0.000000,148.041188,-76303.111601
407.155852,-3701.029710,-1776.494261,-76149.892501
407.158436,-444.123565,4737.318029,-77528.864398
407.161021,888.247130,-8290.306550,-78141.740796
407.163605,-3256.906145,-11547.212695,-76303.111601
407.166189,-3108.864956,-4589.276840,-76915.987999
407.168774,2960.823768,-13619.789333,-78294.959896
407.171358,3256.906145,-8290.306550,-76915.987999
407.173943,-4441.235652,-10214.842000,-78294.959896
407.176527,7105.977043,-7846.182985,-79214.274493
407.179112,148.041188,-8142.265362,-77682.083497
407.181696,-3256.906145,-3701.029710,-78141.740796
407.184281,3108.864956,-8438.347739,-79214.274493
407.186865,740.205942,2960.823768,-77222.426198
407.189449,-3256.906145,8290.306550,-80440.027290
407.192034,3849.070898,15840.407159,-76762.768900
407.194618,3552.988522,10658.965565,-77835.302597
407.197203,-3404.947333,12435.459826,-75537.016103
407.199787,-1480.411884,2220.617826,-78907.836294
407.202372,3552.988522,-740.205942,-75843.454302
407.204956,-4441.235652,-296.082377,-77375.645298
407.207541,3701.029710,-3849.070898,-80286.808190
407.210125,1036.288319,1924.535449,-77835.302597
407.212709,-3256.906145,5773.606348,-77375.645298
407.215294,148.041188,8882.471304,-76609.549800
407.217878,4737.318029,6069.688724,-77375.645298
407.220463,-2516.700203,11843.295072,-76456.330700
407.223047,-2368.659014,8142.265362,-80133.589091
407.225632,2960.823768,3701.029710,-77835.302597
407.228216,-3849.070898,6217.729913,-75843.454302
407.230801,-148.041188,4737.318029,-78907.836294
407.233385,3997.112087,1480.411884,-77682.083497
407.235969,3552.988522,-10362.883188,-77222.426198
407.238554,-5033.400406,-10214.842000,-77375.645298
407.241138,1628.453072,-18801.230927,-78754.617194
407.243723,2368.659014,-10510.924376,-76609.549800
407.246307,-4589.276840,-11547.212695,-77835.302597
407.248892,6513.812290,-4145.153275,-77682.083497
407.251476,888.247130,-740.205942,-78294.959896
407.254061,-2220.617826,2368.659014,-77988.521696
407.256645,3849.070898,4737.318029,-77682.083497
407.259229,3701.029710,-8586.388927,-78601.398095
407.261814,-4293.194464,-7105.977043,-75996.673402
407.264398,-2664.741391,-7698.141797,-77222.426198
407.266982,1924.535449,-16728.654289,-76762.768900
407.269567,-3404.947333,-9178.553681,-78141.740796
407.272151,-2220.617826,-11399.171507,-79827.150892
407.274735,1776.494261,-7105.977043,-76609.549800
407.277319,-4441.235652,-7254.018232,-75996.673402
407.279903,-2072.576638,-4589.276840,-79520.712692
407.282487,3849.070898,-1628.453072,-78754.617194
407.285072,3701.029710,8882.471304,-78907.836294
407.287656,-3256.906145,12583.501014,-79367.493593
407.290240,7994.224174,15100.201217,-77375.645298
407.292824,2220.617826,11103.089130,-77069.207099
407.295408,-4589.276840,9622.677246,-77682.083497
407.297992,4441.235652,-1036.288319,-81052.903688
407.300576,-148.041188,-1924.535449,-78448.178995
407.303161,-1332.370696,3404.947333,-78601.398095
407.305745,-888.247130,5625.565159,-78907.836294
407.308329,444.123565,-5477.523971,-79673.931792
407.310913,-4145.153275,8734.430116,-75077.358804
407.313497,-1332.370696,7550.100608,-77069.207099
407.316081,4145.153275,12139.377449,-77988.521696
407.318665,-5477.523971,8734.430116,-77375.645298
407.321250,-740.205942,7550.100608,-77682.083497
407.323834,2516.700203,3997.112087,-77682.083497
407.326418,-5033.400406,2516.700203,-77375.645298
407.329002,-2368.659014,6069.688724,-76456.330700
407.331586,7105.977043,-11251.130318,-78754.617194
407.334170,-1036.288319,-10066.800811,-77528.864398
407.336755,-2664.741391,-14656.077652,-78601.398095
407.339339,6661.853478,-13915.871710,-77988.521696
407.341923,-296.082377,-13767.830521,-77835.302597
407.344507,-2516.700203,-3108.864956,-79061.055394
407.347091,3108.864956,-1924.535449,-77988.521696
407.349675,444.123565,-592.164754,-77528.864398
407.352259,-3997.112087,-3997.112087,-76915.987999
407.354844,1036.288319,-2960.823768,-77528.864398
407.357428,1480.411884,-7550.100608,-77988.521696
407.360012,-3256.906145,-7105.977043,-77375.645298
407.362596,1036.288319,-11103.089130,-78294.959896
407.365180,888.247130,-11103.089130,-75843.454302
407.367764,-4737.318029,-10214.842000,-77528.864398
407.370315,-2516.700203,-7994.224174,-79214.274493
407.372866,6513.812290,-9178.553681,-78907.836294
407.375417,-5625.565159,-7550.100608,-77682.083497
407.377968,-2368.659014,888.247130,-77988.521696
407.380519,2664.741391,4441.235652,-77835.302597
407.383070,-2812.782580,13619.789333,-76456.330700
407.385621,-3256.906145,16136.489536,-79061.055394
407.388172,3849.070898,9918.759623,-77835.302597
407.390723,-7698.141797,6365.771101,-76149.892501
407.393274,-1776.494261,2516.700203,-76915.987999
407.395825,3256.906145,-4589.276840,-79367.493593
407.398376,5181.441594,592.164754,-77528.864398
407.400927,-3108.864956,-2072.576638,-79673.931792
407.403478,6217.729913,12731.542202,-77375.645298
407.406029,3404.947333,296.082377,-79061.055394
407.408580,-740.205942,11991.336260,-77222.426198
407.411131,3849.070898,9918.759623,-80133.589091
407.413682,2072.576638,12287.418637,-77528.864398
407.416233,-5477.523971,6513.812290,-77375.645298
407.418784,-444.123565,5181.441594,-77528.864398
407.421335,1628.453072,1924.535449,-76149.892501
407.423886,-3997.112087,2812.782580,-75537.016103
407.426437,-740.205942,-7698.141797,-79367.493593
407.428988,2664.741391,-15544.324782,-77835.302597
407.431539,-6809.894666,-13027.624579,-75537.016103
407.434089,444.123565,-16136.489536,-77528.864398
407.436640,3256.906145,-12583.501014,-76762.768900
407.439191,-592.164754,-6365.771101,-76915.987999
407.441742,-2072.576638,6957.935855,-77069.207099
407.444293,3552.988522,1332.370696,-79214.274493
407.446844,888.247130,-5329.482782,-79061.055394
407.449395,-4145.153275,-3404.947333,-78754.617194
407.451946,6365.771101,-6217.729913,-77069.207099
407.454497,-2072.576638,-10658.965565,-77222.426198
407.457048,-3404.947333,-9622.677246,-79673.931792
407.459599,3256.906145,-14804.118840,-78754.617194
407.462150,2516.700203,-9178.553681,-76303.111601
407.464701,-5625.565159,-6661.853478,-77375.645298
407.467252,592.164754,-7550.100608,-78294.959896
407.469803,2220.617826,-7994.224174,-77528.864398
407.472360,-5773.606348,2516.700203,-77682.083497
407.474917,1332.370696,10510.924376,-78601.398095
407.477473,5773.606348,13767.830521,-76915.987999
407.480030,-2812.782580,14508.036463,-76303.111601
407.482587,-2516.700203,11843.295072,-78294.959896
407.485144,2220.617826,740.205942,-78601.398095
407.487700,-1776.494261,2072.576638,-76609.549800
407.490257,-3404.947333,-3701.029710,-79061.055394
407.492814,6365.771101,-3108.864956,-77222.426198
407.495371,-5477.523971,-1480.411884,-78141.740796
407.497928,-2960.823768,9178.553681,-76456.330700
407.500484,2368.659014,4145.153275,-76915.987999
407.503041,296.082377,9474.636058,-77222.426198
407.505598,-4589.276840,13471.748144,-77682.083497
407.508155,3701.029710,8734.430116,-79520.712692
407.510711,2368.659014,4737.318029,-78294.959896
407.513268,-3256.906145,4885.359217,-77528.864398
407.515825,3701.029710,4145.153275,-77222.426198
407.518382,3849.070898,-148.041188,-77069.207099
407.520938,-3701.029710,-8586.388927,-77682.083497
407.523495,5033.400406,-13027.624579,-79367.493593
407.526052,1036.288319,-16284.530724,-76762.768900
407.528609,-2072.576638,-14952.160028,-77835.302597
407.531166,-592.164754,-7698.141797,-78601.398095
407.533722,3404.947333,-3108.864956,-75996.673402
407.536279,-4293.194464,740.205942,-75996.673402
407.538836,-1184.329507,3997.112087,-76456.330700
407.541393,4885.359217,-7846.182985,-78141.740796
407.543949,1332.370696,-3552.988522,-77222.426198
407.546506,-3404.947333,-11251.130318,-79827.150892
407.549063,4441.235652,-8290.306550,-78294.959896
407.551620,2812.782580,-13471.748144,-77528.864398
407.554177,-4885.359217,-12287.418637,-75690.235202
407.556733,148.041188,-7105.977043,-77528.864398
407.559290,3701.029710,-9326.594869,-78141.740796
407.561847,-5773.606348,-4441.235652,-78141.740796
407.564404,-1924.535449,-1480.411884,-79061.055394
407.566960,3108.864956,7846.182985,-76456.330700
407.569517,-3849.070898,11991.336260,-75537.016103
407.572074,1036.288319,16432.571912,-76762.768900
407.574636,6661.853478,9622.677246,-78141.740796
407.577198,-2220.617826,4145.153275,-78601.398095
407.579760,-4441.235652,740.205942,-79367.493593
407.582322,6809.894666,-3404.947333,-80286.808190
407.584884,1924.535449,-6217.729913,-77069.207099
407.587446,-2960.823768,12879.583391,-75077.358804
407.590008,2072.576638,-2812.782580,-80133.589091
407.592570,-888.247130,7698.141797,-77222.426198
407.595132,-3108.864956,10807.006753,-79673.931792
407.597694,-888.247130,10807.006753,-79367.493593
407.600256,3404.947333,11399.171507,-75843.454302
407.602818,-5625.565159,4885.359217,-75843.454302
407.605380,1628.453072,3701.029710,-78601.398095
407.607942,1184.329507,1332.370696,-77835.302597
407.610504,-4293.194464,1628.453072,-75843.454302
407.613066,1184.329507,-11399.171507,-78448.178995
407.615628,3849.070898,-15544.324782,-78907.836294
407.618189,-5773.606348,-15396.283594,-76456.330700
407.620751,-2368.659014,-13915.871710,-79980.369991
407.623313,3552.988522,-11547.212695,-78601.398095
407.625875,-3552.988522,-1776.494261,-76762.768900
407.628437,-2516.700203,4293.194464,-79367.493593
407.630999,1480.411884,-6661.853478,-78294.959896
407.633561,-2368.659014,-1184.329507,-76149.892501
407.636123,-1036.288319,-4293.194464,-77222.426198
407.638685,2960.823768,-8734.430116,-77835.302597
407.641247,1924.535449,-11399.171507,-75077.358804
407.643809,-4145.153275,-10658.965565,-77375.645298
407.646371,5329.482782,-11991.336260,-80286.808190
407.648933,2812.782580,-9918.759623,-77682.083497
407.651495,-1332.370696,-5773.606348,-76456.330700
407.654057,4145.153275,-7105.977043,-79061.055394
407.656619,2220.617826,1480.411884,-78448.178995
407.659181,-3552.988522,8586.388927,-79980.369991
407.661743,1332.370696,17616.901420,-78448.178995
407.664305,3701.029710,12435.459826,-76609.549800
407.666867,-2960.823768,13767.830521,-75537.016103
407.669429,-3256.906145,3701.029710,-78907.836294
407.671991,1480.411884,-2368.659014,-77069.207099
407.674553,-5033.400406,-7105.977043,-76456.330700
407.677118,-296.082377,4737.318029,-77835.302597
407.679684,1036.288319,-3997.112087,-79214.274493
407.682249,-6365.771101,5625.565159,-76149.892501
407.684815,-5625.565159,7994.224174,-78448.178995
407.687380,7698.141797,10362.883188,-79980.369991
407.689946,2220.617826,10066.800811,-78601.398095
407.692511,-2220.617826,10658.965565,-77069.207099
407.695077,5921.647536,6809.894666,-78294.959896
407.697642,148.041188,3552.988522,-77988.521696
407.700208,-4145.153275,5033.400406,-77528.864398
407.702773,5329.482782,-2368.659014,-77682.083497
407.705339,148.041188,-11547.212695,-76303.111601
407.707904,-6069.688724,-17024.736666,-77682.083497
407.710470,592.164754,-15544.324782,-77069.207099
407.713035,2812.782580,-15100.201217,-77682.083497
407.715601,-3404.947333,-8438.347739,-77069.207099
407.718167,-1480.411884,-592.164754,-77988.521696
407.720732,3404.947333,5329.482782,-77528.864398
407.723298,-5477.523971,-3108.864956,-75537.016103
407.725863,2368.659014,-1924.535449,-76915.987999
407.728429,4885.359217,-8290.306550,-78141.740796
407.730994,-1628.453072,-9178.553681,-78141.740796
407.733560,-3108.864956,-8882.471304,-80133.589091
407.736125,2220.617826,-17468.860231,-77682.083497
407.738691,-2812.782580,-9030.512492,-74004.825107
407.741256,-444.123565,-7402.059420,-78448.178995
407.743822,5181.441594,-10658.965565,-79673.931792
407.746387,-2516.700203,-3701.029710,-77682.083497
407.748953,-1332.370696,888.247130,-78907.836294
407.751518,2812.782580,10658.965565,-79214.274493
407.754084,4145.153275,16728.654289,-77069.207099
407.756649,-1924.535449,15100.201217,-77682.083497
407.759215,5181.441594,12583.501014,-77988.521696
407.761780,-740.205942,1184.329507,-78294.959896
407.764346,-3552.988522,1332.370696,-77222.426198
407.766911,5625.565159,-5773.606348,-79061.055394
407.769477,4737.318029,3849.070898,-77222.426198
407.772042,-3256.906145,592.164754,-79061.055394
407.774608,-3849.070898,148.041188,-77835.302597
407.777173,1332.370696,7698.141797,-77069.207099
407.779706,-3404.947333,11695.253884,-77682.083497
407.782242,-592.164754,15544.324782,-79673.931792
407.784778,3256.906145,2812.782580,-78294.959896
407.787315,-5329.482782,7994.224174,-75996.673402
407.789851,-2220.617826,2220.617826,-78907.836294
407.792387,1776.494261,4737.318029,-76915.987999
407.794923,-3404.947333,-6957.935855,-76609.549800
407.797460,-3108.864956,-9178.553681,-77682.083497
407.799996,3256.906145,-20133.601622,-78448.178995
407.802532,2220.617826,-13619.789333,-77222.426198
407.805068,-4293.194464,-12287.418637,-78754.617194
407.807605,7550.100608,-4885.359217,-78448.178995
407.810141,888.247130,3256.906145,-77682.083497
407.812677,-5033.400406,4885.359217,-76762.768900
