#time,accel_x,accel_y,accel_z
1459.069041,0.000000,-2516.700203,-79214.274493
1459.071691,-148.041188,-444.123565,-79061.055394
1459.074341,-592.164754,-2072.576638,-79367.493593
1459.076991,-592.164754,-740.205942,-79214.274493
1459.079642,-888.247130,-2072.576638,-79827.150892
1459.082292,740.205942,-148.041188,-78754.617194
1459.084942,-592.164754,-2368.659014,-80440.027290
1459.087593,296.082377,-592.164754,-79367.493593
1459.090243,-2368.659014,-296.082377,-80133.589091
1459.092893,4293.194464,-2812.782580,-78141.740796
1459.095544,5625.565159,-740.205942,-77528.864398
1459.098194,4885.359217,-1776.494261,-79061.055394
1459.100844,5477.523971,444.123565,-80440.027290
1459.103494,7698.141797,-888.247130,-80286.808190
1459.106145,4589.276840,-444.123565,-79673.931792
1459.108795,-1184.329507,-444.123565,-80133.589091
1459.111445,1036.288319,592.164754,-79214.274493
1459.114096,2516.700203,-1924.535449,-80286.808190
1459.116746,7550.100608,-1776.494261,-78754.617194
1459.119396,-3552.988522,-1480.411884,-78448.178995
1459.122047,-5773.606348,-1480.411884,-78907.836294
1459.124697,-9326.594869,-1480.411884,-78294.959896
1459.127347,-8734.430116,-2960.823768,-79980.369991
1459.129997,-148.041188,740.205942,-78141.740796
1459.132648,5033.400406,-2220.617826,-80133.589091
1459.135298,1332.370696,0.000000,-78448.178995
1459.137948,-2960.823768,-2664.741391,-80899.684589
1459.140599,-7698.141797,-592.164754,-79520.712692
1459.143249,-13767.830521,-444.123565,-79061.055394
1459.145899,-3849.070898,-3849.070898,-81052.903688
1459.148550,-592.164754,-740.205942,-80286.808190
1459.151200,-296.082377,-2072.576638,-79367.493593
1459.153850,-1628.453072,444.123565,-77528.864398
1459.156500,-1332.370696,-2960.823768,-76762.768900
1459.159151,592.164754,-1332.370696,-78448.178995
1459.161801,-3256.906145,-1332.370696,-78601.398095
1459.164451,0.000000,296.082377,-80440.027290
1459.167091,-1332.370696,-2516.700203,-79367.493593
1459.169732,-5033.400406,-592.164754,-79214.274493
1459.172372,-9770.718434,-2220.617826,-79980.369991
1459.175012,-5625.565159,-1332.370696,-78294.959896
1459.177652,-7105.977043,-1628.453072,-79061.055394
1459.180292,1036.288319,-592.164754,-80286.808190
1459.182932,2960.823768,-1776.494261,-79827.150892
1459.185572,-740.205942,-888.247130,-79520.712692
1459.188212,-5773.606348,-1924.535449,-80286.808190
1459.190852,-9918.759623,-148.041188,-79827.150892
1459.193492,-12139.377449,-2220.617826,-79367.493593
1459.196132,-2368.659014,-1036.288319,-77835.302597
1459.198772,3997.112087,-888.247130,-78294.959896
1459.201413,6365.771101,-1036.288319,-79673.931792
1459.204053,-1628.453072,-1036.288319,-79980.369991
1459.206693,-2664.741391,-2072.576638,-80899.684589
1459.209333,-3849.070898,-740.205942,-78754.617194
1459.211973,-148.041188,-1480.411884,-79673.931792
1459.214613,4441.235652,-1184.329507,-80133.589091
1459.217253,5477.523971,-2072.576638,-78907.836294
1459.219893,6365.771101,-1036.288319,-78448.178995
1459.222533,444.123565,-3256.906145,-79520.712692
1459.225173,2960.823768,-592.164754,-78601.398095
1459.227813,1628.453072,-1924.535449,-80286.808190
1459.230453,4737.318029,148.041188,-78294.959896
1459.233094,-444.123565,-3256.906145,-79061.055394
1459.235734,740.205942,-1036.288319,-79673.931792
1459.238374,1332.370696,-1776.494261,-78448.178995
1459.241014,6365.771101,-3108.864956,-79061.055394
1459.243654,6217.729913,296.082377,-78294.959896
1459.246294,7402.059420,-1628.453072,-80899.684589
1459.248934,4589.276840,-592.164754,-81052.903688
1459.251574,3404.947333,-2812.782580,-79061.055394
1459.254214,0.000000,0.000000,-79673.931792
1459.256854,9770.718434,-1628.453072,-81665.780087
1459.259494,-6069.688724,-1628.453072,-80133.589091
1459.262134,10658.965565,-148.041188,-78907.836294
1459.264774,-6809.894666,-2812.782580,-83044.751983
1459.267415,8734.430116,-888.247130,-78754.617194
1459.270055,3997.112087,-2516.700203,-80286.808190
1459.272682,10214.842000,0.000000,-79827.150892
1459.275308,7254.018232,-2368.659014,-80133.589091
1459.277935,9474.636058,-296.082377,-79061.055394
1459.280562,-1924.535449,-2664.741391,-78754.617194
1459.283189,0.000000,0.000000,-78141.740796
1459.285816,-4293.194464,-3404.947333,-79980.369991
1459.288443,2368.659014,592.164754,-79061.055394
1459.291069,8438.347739,-1924.535449,-79214.274493
1459.293696,6661.853478,-2220.617826,-78907.836294
1459.296323,9178.553681,-740.205942,-78601.398095
1459.298950,-2516.700203,-1036.288319,-79214.274493
1459.301577,-2516.700203,444.123565,-79367.493593
1459.304204,-4293.194464,-2368.659014,-80286.808190
1459.306831,4293.194464,-740.205942,-79061.055394
1459.309457,-5773.606348,-740.205942,-78907.836294
1459.312084,-2960.823768,-592.164754,-78601.398095
1459.314711,-3701.029710,-740.205942,-79980.369991
1459.317338,2960.823768,-2664.741391,-80440.027290
1459.319965,-2368.659014,-1924.535449,-77375.645298
1459.322592,1480.411884,-1036.288319,-78754.617194
1459.325218,-7698.141797,-1184.329507,-78601.398095
1459.327845,-11103.089130,-1332.370696,-80286.808190
1459.330472,-9326.594869,-148.041188,-79214.274493
1459.333099,296.082377,-1628.453072,-80440.027290
1459.335726,1776.494261,-2368.659014,-79827.150892
1459.338353,592.164754,148.041188,-78294.959896
1459.340980,-4293.194464,-3256.906145,-78754.617194
1459.343606,-6809.894666,888.247130,-78601.398095
1459.346233,-10214.842000,-3256.906145,-78294.959896
1459.348860,-2812.782580,-740.205942,-77222.426198
1459.351487,-4293.194464,-2072.576638,-78601.398095
1459.354114,-2664.741391,0.000000,-79520.712692
1459.356741,-1332.370696,-2516.700203,-79367.493593
1459.359367,-3108.864956,148.041188,-78907.836294
1459.361994,-592.164754,-296.082377,-78754.617194
1459.364621,-3404.947333,-888.247130,-80746.465489
1459.367248,1332.370696,-1184.329507,-78754.617194
1459.369875,-2072.576638,-1036.288319,-78754.617194
1459.372502,-7846.182985,444.123565,-78448.178995
1459.375129,-11251.130318,-2220.617826,-80133.589091
1459.377623,-10362.883188,-1924.535449,-79673.931792
1459.380117,3108.864956,296.082377,-77988.521696
1459.382612,-1924.535449,-3701.029710,-79980.369991
1459.385106,5329.482782,1924.535449,-79520.712692
1459.387600,-5921.647536,-2664.741391,-79520.712692
1459.390095,-7550.100608,-296.082377,-78754.617194
1459.392589,-13471.748144,-3108.864956,-80133.589091
1459.395083,-1628.453072,-740.205942,-78754.617194
1459.397578,444.123565,-1776.494261,-78907.836294
1459.400072,8734.430116,-888.247130,-79827.150892
1459.402566,-1776.494261,-1184.329507,-78754.617194
1459.405061,148.041188,-1332.370696,-79980.369991
1459.407555,-2368.659014,-1184.329507,-78294.959896
1459.410049,1776.494261,-1332.370696,-79980.369991
1459.412544,2664.741391,-444.123565,-77835.302597
1459.415038,7698.141797,-1480.411884,-80133.589091
1459.417532,148.041188,-1332.370696,-79980.369991
1459.420027,5181.441594,0.000000,-78141.740796
1459.422521,1036.288319,-3108.864956,-79673.931792
1459.425015,6217.729913,-296.082377,-78448.178995
1459.427510,2516.700203,-2220.617826,-79980.369991
1459.430004,-592.164754,296.082377,-78294.959896
1459.432498,-1036.288319,-3256.906145,-80286.808190
1459.434993,1332.370696,444.123565,-78141.740796
1459.437487,2220.617826,740.205942,-78754.617194
1459.439981,11547.212695,-2812.782580,-78141.740796
1459.442476,1184.329507,888.247130,-78754.617194
1459.444970,2072.576638,-1924.535449,-81665.780087
1459.447464,-1924.535449,-1184.329507,-79520.712692
1459.449959,4737.318029,-592.164754,-80286.808190
1459.452453,2960.823768,-4145.153275,-77988.521696
1459.454947,-4737.318029,-592.164754,-78448.178995
1459.457442,8142.265362,-3108.864956,-78907.836294
1459.459936,-7254.018232,148.041188,-79520.712692
1459.462430,2072.576638,-3404.947333,-77682.083497
1459.464925,8290.306550,-592.164754,-78141.740796
1459.467419,11399.171507,-3108.864956,-77988.521696
1459.469913,6957.935855,-592.164754,-79980.369991
1459.472408,-444.123565,-1924.535449,-80899.684589
1459.474902,-2516.700203,888.247130,-79214.274493
1459.477420,444.123565,-592.164754,-79673.931792
1459.479946,-148.041188,-1036.288319,-80440.027290
1459.482471,13323.706956,148.041188,-78907.836294
1459.484996,7550.100608,-2664.741391,-80746.465489
1459.487521,6513.812290,296.082377,-77528.864398
1459.490046,-5033.400406,-3256.906145,-80593.246390
1459.492571,-3552.988522,-148.041188,-77988.521696
1459.495096,-2516.700203,-2664.741391,-80133.589091
1459.497622,296.082377,-1036.288319,-78754.617194
1459.500147,-4737.318029,444.123565,-78448.178995
1459.502672,-4441.235652,-1036.288319,-79061.055394
1459.505197,-3108.864956,-2072.576638,-80133.589091
1459.507722,2812.782580,-592.164754,-79520.712692
1459.510247,-592.164754,-2664.741391,-79367.493593
1459.512772,-1480.411884,-296.082377,-78294.959896
1459.515297,-7698.141797,-444.123565,-77988.521696
1459.517823,-11251.130318,-2664.741391,-80746.465489
1459.520348,-6809.894666,-148.041188,-78601.398095
1459.522873,2220.617826,-1184.329507,-79520.712692
1459.525398,-888.247130,-1332.370696,-78448.178995
1459.527923,148.041188,-4145.153275,-78754.617194
1459.530448,-4737.318029,444.123565,-80133.589091
1459.532973,-15100.201217,-444.123565,-79673.931792
1459.535498,-4441.235652,-1924.535449,-81052.903688
1459.538024,-5921.647536,-1184.329507,-79980.369991
1459.540549,3108.864956,-148.041188,-78601.398095
1459.543074,-8734.430116,-1924.535449,-77375.645298
1459.545599,3701.029710,148.041188,-76762.768900
1459.548124,-7254.018232,-5181.441594,-79980.369991
1459.550649,4293.194464,-296.082377,-80133.589091
1459.553174,-1776.494261,148.041188,-81972.218286
1459.555700,-6957.935855,888.247130,-77069.207099
1459.558225,-3701.029710,-1332.370696,-80593.246390
1459.560750,-10955.047942,-2960.823768,-81512.560987
1459.563275,-5329.482782,2072.576638,-78294.959896
1459.565800,-2220.617826,-1924.535449,-80133.589091
1459.568325,2960.823768,-148.041188,-77682.083497
1459.570850,1036.288319,-2516.700203,-77988.521696
1459.573375,-5625.565159,-1332.370696,-79061.055394
1459.575901,-12731.542202,-3552.988522,-77375.645298
1459.578447,-4737.318029,-444.123565,-78448.178995
1459.580993,-2368.659014,-3108.864956,-79061.055394
1459.583539,6809.894666,444.123565,-78601.398095
1459.586085,740.205942,-2812.782580,-80593.246390
1459.588631,740.205942,1924.535449,-79520.712692
1459.591177,-3701.029710,-4145.153275,-80133.589091
1459.593723,2812.782580,-1184.329507,-77528.864398
1459.596269,3256.906145,-444.123565,-79673.931792
1459.598815,4441.235652,-444.123565,-79214.274493
1459.601361,3552.988522,-2812.782580,-78601.398095
1459.603907,1332.370696,-1036.288319,-78601.398095
1459.606453,2368.659014,-1332.370696,-79673.931792
1459.608999,3701.029710,-296.082377,-79061.055394
1459.611545,3552.988522,-2220.617826,-79520.712692
1459.614091,444.123565,-1628.453072,-78907.836294
1459.616637,-444.123565,-1184.329507,-78907.836294
1459.619183,2220.617826,1332.370696,-81052.903688
1459.621729,2664.741391,-3997.112087,-79520.712692
1459.624275,9770.718434,888.247130,-78141.740796
1459.626821,1628.453072,-3108.864956,-80286.808190
1459.629367,1036.288319,-888.247130,-80593.246390
1459.631913,2220.617826,-1924.535449,-78754.617194
1459.634459,296.082377,-592.164754,-78294.959896
1459.637005,-1776.494261,-1332.370696,-80593.246390
1459.639551,1628.453072,-1628.453072,-77375.645298
1459.642098,3997.112087,-1184.329507,-79367.493593
1459.644644,-1924.535449,-1924.535449,-78448.178995
1459.647190,1184.329507,-1332.370696,-79367.493593
1459.649736,11399.171507,-740.205942,-78141.740796
1459.652282,5033.400406,-148.041188,-79214.274493
1459.654828,4737.318029,-2664.741391,-79214.274493
1459.657374,1480.411884,-740.205942,-77988.521696
1459.659920,-2220.617826,-1332.370696,-79061.055394
1459.662466,-2220.617826,-592.164754,-79367.493593
1459.665012,7550.100608,-1628.453072,-80899.684589
1459.667558,9178.553681,-1628.453072,-79214.274493
1459.670104,8290.306550,-444.123565,-78907.836294
1459.672650,-1332.370696,-1184.329507,-78601.398095
1459.675196,-2664.741391,-1036.288319,-79520.712692
1459.677742,-3849.070898,-1332.370696,-78907.836294
1459.680303,-2072.576638,-1332.370696,-78294.959896
1459.682864,-4145.153275,148.041188,-78907.836294
1459.685425,-3256.906145,-296.082377,-78448.178995
1459.687986,-888.247130,-3108.864956,-80593.246390
1459.690547,1480.411884,-592.164754,-77988.521696
1459.693108,-1776.494261,-1924.535449,-79367.493593
1459.695669,-4737.318029,-1184.329507,-77835.302597
1459.698230,-6513.812290,-1184.329507,-78294.959896
1459.700791,-10214.842000,-3404.947333,-80899.684589
1459.703352,-5477.523971,1332.370696,-78754.617194
1459.705913,1036.288319,-3256.906145,-79214.274493
1459.708474,2220.617826,-1036.288319,-77835.302597
1459.711036,-2368.659014,-2072.576638,-79061.055394
1459.713597,-7105.977043,1924.535449,-80286.808190
1459.716158,-6513.812290,-4441.235652,-79827.150892
1459.718719,2516.700203,-1332.370696,-78601.398095
1459.721280,-1776.494261,-2072.576638,-81052.903688
1459.723841,2220.617826,148.041188,-77069.207099
1459.726402,148.041188,-2072.576638,-79827.150892
1459.728963,-2664.741391,-1924.535449,-77069.207099
1459.731524,1628.453072,-1036.288319,-78907.836294
1459.734085,-5921.647536,-1924.535449,-81206.122788
1459.736646,-7846.182985,0.000000,-78141.740796
1459.739207,-4737.318029,-2960.823768,-81359.341888
1459.741768,-10955.047942,0.000000,-80746.465489
1459.744329,-8438.347739,-1184.329507,-80440.027290
1459.746890,-3997.112087,-1184.329507,-77988.521696
1459.749451,1332.370696,-1036.288319,-77222.426198
1459.752012,296.082377,-592.164754,-77222.426198
1459.754573,-7550.100608,-3849.070898,-79827.150892
1459.757134,-8882.471304,1628.453072,-79520.712692
1459.759695,-6957.935855,-3404.947333,-79367.493593
1459.762256,296.082377,-1036.288319,-79214.274493
1459.764817,1628.453072,-296.082377,-79980.369991
1459.767378,1480.411884,-1628.453072,-80746.465489
1459.769939,592.164754,-444.123565,-78754.617194
1459.772500,888.247130,-2368.659014,-78754.617194
1459.775061,148.041188,-888.247130,-78141.740796
1459.777622,5181.441594,-2664.741391,-79061.055394
1459.780183,1628.453072,-2072.576638,-78294.959896
1459.782752,2812.782580,-1036.288319,-77835.302597
1459.785321,3849.070898,-2368.659014,-79061.055394
1459.787889,3552.988522,-1184.329507,-78601.398095
1459.790458,4589.276840,-1480.411884,-79827.150892
1459.793027,3701.029710,-740.205942,-78754.617194
1459.795595,1184.329507,-1628.453072,-79673.931792
1459.798164,740.205942,-444.123565,-78448.178995
1459.800733,296.082377,-444.123565,-81052.903688
1459.803301,5181.441594,-1036.288319,-79673.931792
1459.805870,1184.329507,-3404.947333,-77528.864398
1459.808439,8734.430116,-296.082377,-78141.740796
1459.811007,1924.535449,-3701.029710,-79214.274493
1459.813576,-2664.741391,-1036.288319,-80899.684589
1459.816145,-148.041188,-1036.288319,-79367.493593
1459.818713,592.164754,-2516.700203,-79520.712692
1459.821282,740.205942,-2072.576638,-81512.560987
1459.823850,2812.782580,-296.082377,-77988.521696
1459.826419,3552.988522,-1776.494261,-80746.465489
1459.828988,6069.688724,-2072.576638,-78601.398095
1459.831556,10658.965565,-1036.288319,-78141.740796
1459.834125,3404.947333,-2516.700203,-77988.521696
1459.836694,888.247130,-740.205942,-78907.836294
1459.839262,-5033.400406,-1332.370696,-79673.931792
1459.841831,2960.823768,-592.164754,-78448.178995
1459.844400,6661.853478,-2072.576638,-78907.836294
1459.846968,13471.748144,-592.164754,-78448.178995
1459.849537,1480.411884,-3108.864956,-79520.712692
1459.852106,1036.288319,888.247130,-78448.178995
1459.854674,-6365.771101,-3849.070898,-78907.836294
1459.857243,1924.535449,-296.082377,-77528.864398
1459.859812,-2516.700203,-3552.988522,-80593.246390
1459.862380,-1924.535449,0.000000,-77988.521696
1459.864949,-4293.194464,-2516.700203,-78601.398095
1459.867518,148.041188,-2220.617826,-79980.369991
1459.870086,-1480.411884,-1628.453072,-79520.712692
1459.872655,148.041188,-740.205942,-79673.931792
1459.875223,-3552.988522,-1332.370696,-78448.178995
1459.877792,-9178.553681,-444.123565,-78448.178995
1459.880361,-8734.430116,-3108.864956,-80133.589091
1459.882929,-5181.441594,296.082377,-78601.398095
1459.885504,3256.906145,-1480.411884,-79980.369991
1459.888078,592.164754,-1332.370696,-78141.740796
1459.890652,-4293.194464,-1776.494261,-79520.712692
1459.893227,1776.494261,-740.205942,-77069.207099
1459.895801,-6809.894666,-1628.453072,-81206.122788
1459.898375,-3108.864956,-1628.453072,-79061.055394
1459.900950,-1628.453072,-2960.823768,-79061.055394
1459.903524,888.247130,-888.247130,-79980.369991
1459.906098,-148.041188,-2812.782580,-79520.712692
1459.908673,-296.082377,-1776.494261,-78141.740796
1459.911247,-2368.659014,-1036.288319,-77528.864398
1459.913821,-6809.894666,-2516.700203,-80286.808190
1459.916395,-5773.606348,-1184.329507,-78601.398095
1459.918970,-5773.606348,-3256.906145,-79673.931792
1459.921544,-6809.894666,-1628.453072,-77682.083497
1459.924118,-4441.235652,-1480.411884,-79214.274493
1459.926693,-148.041188,-2516.700203,-79980.369991
1459.929267,-296.082377,0.000000,-78754.617194
1459.931841,-8290.306550,-2368.659014,-79520.712692
1459.934416,-6809.894666,-592.164754,-78754.617194
1459.936990,-5181.441594,-2516.700203,-80286.808190
1459.939564,740.205942,-296.082377,-78448.178995
1459.942139,2516.700203,-2368.659014,-78907.836294
1459.944713,1036.288319,-1776.494261,-79367.493593
1459.947287,-740.205942,-1332.370696,-78294.959896
1459.949861,2072.576638,-1332.370696,-79367.493593
1459.952436,3849.070898,-1628.453072,-78448.178995
1459.955010,1776.494261,-1036.288319,-79061.055394
1459.957584,2072.576638,-740.205942,-78754.617194
1459.960159,3108.864956,-1332.370696,-80286.808190
1459.962733,1628.453072,-148.041188,-79214.274493
1459.965307,2516.700203,-2220.617826,-79520.712692
1459.967807,6217.729913,-888.247130,-78754.617194
1459.970307,1628.453072,-1628.453072,-79827.150892
1459.972807,888.247130,-888.247130,-78601.398095
1459.975307,2072.576638,-1924.535449,-79673.931792
1459.977807,4145.153275,-740.205942,-78294.959896
1459.980307,4145.153275,-1036.288319,-80286.808190
1459.982806,296.082377,-1036.288319,-79367.493593
1459.985306,2812.782580,-4145.153275,-79520.712692
1459.987806,-1480.411884,296.082377,-79827.150892
1459.990306,-2664.741391,-592.164754,-80133.589091
1459.992806,-1036.288319,-740.205942,-78448.178995
1459.995306,4737.318029,-2368.659014,-79827.150892
1459.997806,-888.247130,-1184.329507,-76915.987999
1460.000305,2368.659014,-1480.411884,-78907.836294
1460.002805,7846.182985,-2812.782580,-79673.931792
1460.005305,8438.347739,0.000000,-77375.645298
1460.007805,3404.947333,-3849.070898,-78294.959896
1460.010305,4589.276840,-888.247130,-78448.178995
1460.012805,-1776.494261,-1480.411884,-78907.836294
1460.015305,3108.864956,-2960.823768,-79980.369991
1460.017805,5181.441594,740.205942,-80440.027290
1460.020304,9178.553681,-444.123565,-79827.150892
1460.022804,1776.494261,-2220.617826,-80593.246390
1460.025304,444.123565,-592.164754,-79214.274493
1460.027804,-5329.482782,-2960.823768,-81206.122788
1460.030304,2960.823768,-592.164754,-77375.645298
1460.032804,-8142.265362,-1924.535449,-78294.959896
1460.035304,-3256.906145,-888.247130,-77988.521696
1460.037804,-5329.482782,-740.205942,-79061.055394
1460.040303,3849.070898,-2072.576638,-81052.903688
1460.042803,-2812.782580,-1924.535449,-78754.617194
1460.045303,-888.247130,-592.164754,-79214.274493
1460.047803,-8586.388927,-740.205942,-79673.931792
1460.050303,-9326.594869,-2220.617826,-81512.560987
1460.052803,-8142.265362,-444.123565,-79673.931792
1460.055303,-592.164754,-592.164754,-79367.493593
1460.057802,1480.411884,-2516.700203,-77682.083497
1460.060302,1332.370696,-1332.370696,-79061.055394
1460.062802,740.205942,-2960.823768,-78907.836294
1460.065302,-3108.864956,-592.164754,-78448.178995
1460.067824,-8734.430116,-1924.535449,-80593.246390
1460.070347,-592.164754,-148.041188,-79673.931792
1460.072869,2960.823768,-592.164754,-79367.493593
1460.075392,-1776.494261,-1480.411884,-78294.959896
1460.077914,0.000000,-1480.411884,-77069.207099
1460.080437,-6069.688724,-2368.659014,-81206.122788
1460.082959,-7254.018232,-3997.112087,-77528.864398
1460.085481,-5921.647536,-888.247130,-79061.055394
1460.088004,-6513.812290,-2220.617826,-77835.302597
1460.090526,-8586.388927,-740.205942,-78601.398095
1460.093049,-2960.823768,-888.247130,-79520.712692
1460.095571,-4145.153275,-2664.741391,-78754.617194
1460.098093,-4145.153275,-1036.288319,-77375.645298
1460.100616,-5921.647536,-2516.700203,-79367.493593
1460.103138,-5329.482782,-2072.576638,-78294.959896
1460.105661,-1036.288319,-740.205942,-78601.398095
1460.108183,888.247130,-1036.288319,-79061.055394
1460.110706,-740.205942,-1184.329507,-79520.712692
1460.113228,2220.617826,-444.123565,-79214.274493
1460.115750,888.247130,-2368.659014,-80133.589091
1460.118273,3256.906145,-740.205942,-78294.959896
1460.120795,5625.565159,-1776.494261,-79061.055394
1460.123318,1332.370696,-1924.535449,-79520.712692
1460.125840,3404.947333,-1184.329507,-78141.740796
1460.128362,1332.370696,-2368.659014,-79673.931792
1460.130885,5329.482782,-888.247130,-78294.959896
1460.133407,5033.400406,-1924.535449,-79061.055394
1460.135930,5625.565159,-888.247130,-77835.302597
1460.138452,2220.617826,-1480.411884,-79367.493593
1460.140974,740.205942,-1332.370696,-81206.122788
1460.143497,-3997.112087,-1332.370696,-78448.178995
1460.146019,8438.347739,-2072.576638,-78294.959896
1460.148542,9030.512492,-2664.741391,-76456.330700
1460.151064,3997.112087,-2664.741391,-79980.369991
1460.153587,-1480.411884,-296.082377,-79520.712692
1460.156109,-1332.370696,-1628.453072,-80899.684589
1460.158631,-1184.329507,-888.247130,-77988.521696
1460.161154,0.000000,-1332.370696,-78754.617194
1460.163676,3701.029710,-2072.576638,-81512.560987
1460.166199,5181.441594,592.164754,-79367.493593
1460.168738,5329.482782,-3108.864956,-80899.684589
1460.171278,7550.100608,-148.041188,-75383.797003
1460.173818,148.041188,-3404.947333,-79520.712692
1460.176358,444.123565,148.041188,-76456.330700
1460.178897,1184.329507,-2516.700203,-80593.246390
1460.181437,2664.741391,-1776.494261,-80133.589091
1460.183977,9030.512492,-296.082377,-77682.083497
1460.186517,4885.359217,-2664.741391,-80440.027290
1460.189057,444.123565,592.164754,-79061.055394
1460.191596,-5033.400406,-4737.318029,-80746.465489
1460.194136,4737.318029,1184.329507,-77222.426198
1460.196676,-5329.482782,-4145.153275,-80746.465489
1460.199216,-6513.812290,2220.617826,-76915.987999
1460.201755,-6513.812290,-3404.947333,-79827.150892
1460.204295,1332.370696,-592.164754,-78294.959896
1460.206835,-1628.453072,-2960.823768,-79214.274493
1460.209375,1924.535449,296.082377,-78294.959896
1460.211914,-5625.565159,-2368.659014,-79214.274493
1460.214454,-10510.924376,-740.205942,-79214.274493
1460.216994,-10955.047942,-1332.370696,-80133.589091
1460.219534,-5921.647536,-1628.453072,-79367.493593
1460.222074,1924.535449,-1184.329507,-78294.959896
1460.224613,-740.205942,-2220.617826,-79214.274493
1460.227153,2812.782580,-2072.576638,-77069.207099
1460.229693,-4589.276840,-740.205942,-78907.836294
1460.232233,-9326.594869,148.041188,-79214.274493
1460.234772,3849.070898,-1628.453072,-80286.808190
1460.237312,-3108.864956,-1036.288319,-79827.150892
1460.239852,-148.041188,-2368.659014,-77835.302597
1460.242392,-1480.411884,888.247130,-81972.218286
1460.244931,-14952.160028,-444.123565,-80440.027290
1460.247471,-2812.782580,-2960.823768,-77835.302597
1460.250011,-8586.388927,-2220.617826,-77682.083497
1460.252551,-5625.565159,-296.082377,-75843.454302
1460.255091,-9326.594869,-2664.741391,-79673.931792
1460.257630,-2664.741391,-1628.453072,-80899.684589
1460.260170,-5181.441594,1036.288319,-81206.122788
1460.262710,-4737.318029,-1480.411884,-78754.617194
1460.265250,-4589.276840,-1480.411884,-79673.931792
1460.267789,-3701.029710,-1628.453072,-80133.589091
1460.270341,-888.247130,-592.164754,-79214.274493
1460.272892,2072.576638,-1184.329507,-79367.493593
1460.275443,-3701.029710,444.123565,-77528.864398
1460.277994,1480.411884,-3404.947333,-79214.274493
1460.280546,1036.288319,-740.205942,-78448.178995
1460.283097,7698.141797,-2072.576638,-79367.493593
1460.285648,2220.617826,-1036.288319,-79214.274493
1460.288200,3108.864956,-1924.535449,-79061.055394
1460.290751,-1480.411884,-444.123565,-79980.369991
1460.293302,2960.823768,-592.164754,-79520.712692
1460.295853,6069.688724,-1924.535449,-79367.493593
1460.298405,6661.853478,-1184.329507,-78754.617194
1460.300956,4293.194464,-1924.535449,-78601.398095
1460.303507,4737.318029,-1776.494261,-79673.931792
1460.306059,1036.288319,-2664.741391,-79673.931792
1460.308610,3404.947333,1036.288319,-79980.369991
1460.311161,5773.606348,-3256.906145,-81206.122788
1460.313712,444.123565,296.082377,-79061.055394
1460.316264,2516.700203,-3108.864956,-80899.684589
1460.318815,4885.359217,-888.247130,-76915.987999
1460.321366,-2812.782580,-2368.659014,-79827.150892
1460.323918,2220.617826,-2812.782580,-78448.178995
1460.326469,8438.347739,-296.082377,-77375.645298
1460.329020,5329.482782,-2368.659014,-79673.931792
1460.331571,6809.894666,-1628.453072,-80133.589091
1460.334123,6513.812290,-2220.617826,-81052.903688
1460.336674,4885.359217,444.123565,-78141.740796
1460.339225,1184.329507,-1628.453072,-77988.521696
1460.341776,2516.700203,-2220.617826,-78294.959896
1460.344328,6365.771101,-888.247130,-79520.712692
1460.346879,11251.130318,-1924.535449,-78448.178995
1460.349430,3108.864956,-1332.370696,-79367.493593
1460.351982,1924.535449,-740.205942,-78448.178995
1460.354533,-4293.194464,-2664.741391,-79827.150892
1460.357084,2664.741391,-444.123565,-79214.274493
1460.359635,-4293.194464,-2516.700203,-79214.274493
1460.362187,-7550.100608,1184.329507,-78907.836294
1460.364738,-4589.276840,-2960.823768,-78907.836294
1460.367289,2072.576638,444.123565,-78754.617194
1460.369841,-1480.411884,-2516.700203,-79520.712692
1460.372401,888.247130,740.205942,-78294.959896
1460.374961,-6957.935855,-2960.823768,-79673.931792
1460.377522,-9178.553681,444.123565,-77682.083497
1460.380082,-10362.883188,-2220.617826,-80593.246390
1460.382643,-3404.947333,-592.164754,-79673.931792
1460.385203,2516.700203,-444.123565,-78294.959896
1460.387764,-6069.688724,-1776.494261,-80286.808190
1460.390324,-296.082377,-3552.988522,-79061.055394
1460.392885,-2960.823768,-1184.329507,-79367.493593
1460.395445,-6809.894666,-444.123565,-77835.302597
1460.398006,-148.041188,-1776.494261,-79827.150892
1460.400566,-2812.782580,-888.247130,-79520.712692
1460.403127,592.164754,-444.123565,-79980.369991
1460.405687,-2812.782580,-1332.370696,-81359.341888
1460.408248,-5033.400406,-1924.535449,-78141.740796
1460.410808,-3552.988522,-444.123565,-79673.931792
1460.413369,-7846.182985,-3108.864956,-79214.274493
1460.415929,-6365.771101,592.164754,-78601.398095
1460.418489,-5329.482782,-2368.659014,-80133.589091
1460.421050,-2220.617826,740.205942,-78294.959896
1460.423610,-5921.647536,-2960.823768,-80746.465489
1460.426171,-3997.112087,-888.247130,-77682.083497
1460.428731,-5033.400406,-1776.494261,-79980.369991
1460.431292,-592.164754,-296.082377,-78141.740796
1460.433852,1628.453072,-1924.535449,-80593.246390
1460.436413,-2516.700203,296.082377,-77375.645298
1460.438973,740.205942,-3552.988522,-81512.560987
1460.441534,1776.494261,148.041188,-78907.836294
1460.444094,1628.453072,1332.370696,-78448.178995
1460.446655,1332.370696,-4293.194464,-80899.684589
1460.449215,4885.359217,-148.041188,-76456.330700
1460.451776,-1184.329507,-2516.700203,-80440.027290
1460.454336,3552.988522,-296.082377,-77528.864398
1460.456897,4441.235652,-2368.659014,-80899.684589
1460.459457,7402.059420,-296.082377,-77835.302597
1460.462017,4589.276840,-2812.782580,-80133.589091
1460.464578,1776.494261,-1776.494261,-79980.369991
1460.467138,3256.906145,-1332.370696,-80286.808190
1460.469699,740.205942,444.123565,-79673.931792
1460.472259,2664.741391,-1776.494261,-79520.712692
1460.474826,7105.977043,-2664.741391,-79673.931792
1460.477392,-296.082377,-296.082377,-77375.645298
1460.479958,-148.041188,-2072.576638,-78907.836294
1460.482524,-3256.906145,-1184.329507,-77988.521696
1460.485091,-2960.823768,-740.205942,-78448.178995
1460.487657,2812.782580,-2072.576638,-78141.740796
1460.490223,12287.418637,444.123565,-76456.330700
1460.492789,7105.977043,-3552.988522,-79980.369991
1460.495355,8882.471304,-296.082377,-79673.931792
1460.497921,-2368.659014,-2516.700203,-82278.656485
1460.500487,5329.482782,1332.370696,-78294.959896
1460.503053,-3404.947333,-3256.906145,-78907.836294
1460.505619,11103.089130,0.000000,-79520.712692
1460.508185,4441.235652,-1776.494261,-81052.903688
1460.510751,1332.370696,-1036.288319,-80593.246390
1460.513318,-2368.659014,-1480.411884,-79367.493593
1460.515884,-296.082377,-1184.329507,-80133.589091
1460.518450,-6069.688724,-148.041188,-78294.959896
1460.521016,-5921.647536,-1480.411884,-79061.055394
1460.523582,-5625.565159,-1924.535449,-77835.302597
1460.526148,1776.494261,-444.123565,-77835.302597
1460.528714,-592.164754,-2960.823768,-80286.808190
1460.531280,740.205942,-444.123565,-77682.083497
1460.533846,-7994.224174,-2072.576638,-79214.274493
1460.536412,-11103.089130,-296.082377,-78601.398095
1460.538978,-10214.842000,-2368.659014,-80746.465489
1460.541545,-4441.235652,148.041188,-78907.836294
1460.544111,296.082377,-2664.741391,-79367.493593
1460.546677,296.082377,-444.123565,-79367.493593
1460.549243,-1776.494261,-3404.947333,-80440.027290
1460.551809,-10955.047942,-740.205942,-79214.274493
1460.554375,0.000000,-296.082377,-77682.083497
1460.556941,-2368.659014,-2812.782580,-78448.178995
1460.559507,-592.164754,-444.123565,-78141.740796
1460.562073,888.247130,-1924.535449,-80286.808190
1460.564639,-7994.224174,-1184.329507,-81206.122788
1460.567206,-7846.182985,-1184.329507,-78294.959896
1460.569772,-9918.759623,-2072.576638,-80133.589091
1460.572338,-7550.100608,-296.082377,-77682.083497
1460.574904,-5625.565159,-1184.329507,-78907.836294
1460.577474,-3108.864956,0.000000,-77835.302597
1460.580045,-7254.018232,-2516.700203,-80286.808190
1460.582616,-4145.153275,-296.082377,-78601.398095
1460.585186,-5773.606348,-2368.659014,-80746.465489
1460.587757,-148.041188,-740.205942,-79367.493593
1460.590328,-1924.535449,-1332.370696,-80286.808190
1460.592898,-1184.329507,-296.082377,-80133.589091
1460.595469,-592.164754,-740.205942,-78754.617194
1460.598040,4737.318029,-2812.782580,-78601.398095
1460.600610,3997.112087,-1332.370696,-78754.617194
1460.603181,6661.853478,-1776.494261,-79214.274493
1460.605752,-296.082377,-1776.494261,-78448.178995
1460.608322,740.205942,-2812.782580,-78754.617194
1460.610893,444.123565,-1628.453072,-79520.712692
1460.613464,6661.853478,-296.082377,-77988.521696
1460.616034,5181.441594,-1776.494261,-79061.055394
1460.618605,7994.224174,-888.247130,-77682.083497
1460.621176,-2516.700203,-3256.906145,-80286.808190
1460.623746,-1924.535449,148.041188,-79673.931792
1460.626317,888.247130,-2516.700203,-78601.398095
1460.628888,7254.018232,-148.041188,-79367.493593
1460.631458,-2220.617826,-3552.988522,-80133.589091
1460.634029,4293.194464,444.123565,-77682.083497
1460.636600,1480.411884,-3404.947333,-79520.712692
1460.639170,-1628.453072,1924.535449,-78754.617194
1460.641741,3701.029710,-2960.823768,-80746.465489
1460.644312,3997.112087,-888.247130,-80746.465489
1460.646882,3404.947333,-592.164754,-80133.589091
1460.649453,10955.047942,-740.205942,-80286.808190
1460.652024,3701.029710,-888.247130,-81206.122788
1460.654594,1036.288319,-740.205942,-80746.465489
1460.657165,-4441.235652,-2812.782580,-77988.521696
1460.659736,7402.059420,-1332.370696,-77375.645298
1460.662306,8290.306550,-1184.329507,-77682.083497
1460.664877,4885.359217,-3108.864956,-78754.617194
1460.667448,3256.906145,1332.370696,-79520.712692
1460.670018,1776.494261,-2220.617826,-78294.959896
1460.672589,-3701.029710,-1480.411884,-78294.959896
1460.675160,-5921.647536,-1184.329507,-80286.808190
1460.677730,-8438.347739,-148.041188,-80593.246390
1460.680303,-3108.864956,-888.247130,-78907.836294
1460.682876,3256.906145,-1628.453072,-80440.027290
1460.685448,-592.164754,148.041188,-77682.083497
1460.688021,-888.247130,-1924.535449,-79673.931792
1460.690594,-6957.935855,-1776.494261,-79061.055394
1460.693166,-11251.130318,-1628.453072,-77375.645298
1460.695739,-9326.594869,-1184.329507,-79980.369991
1460.698312,-1776.494261,-1924.535449,-79367.493593
1460.700884,-1036.288319,-1480.411884,-78601.398095
1460.703457,5625.565159,-3108.864956,-77835.302597
1460.706029,-1332.370696,-2812.782580,-78141.740796
1460.708602,-8438.347739,1480.411884,-77069.207099
1460.711175,296.082377,-1776.494261,-78754.617194
1460.713747,-3404.947333,-1924.535449,-78141.740796
1460.716320,2220.617826,-888.247130,-79520.712692
1460.718893,-3552.988522,-1776.494261,-81665.780087
1460.721465,-888.247130,444.123565,-77682.083497
1460.724038,-7698.141797,-2664.741391,-79367.493593
1460.726611,-8586.388927,-1480.411884,-77528.864398
1460.729183,-8438.347739,-2072.576638,-78294.959896
1460.731756,-1332.370696,-740.205942,-79061.055394
1460.734328,-6217.729913,-2220.617826,-79214.274493
1460.736901,-2516.700203,-592.164754,-79520.712692
1460.739474,-5329.482782,-2220.617826,-79061.055394
1460.742046,-2960.823768,-296.082377,-78448.178995
1460.744619,-888.247130,-2812.782580,-78907.836294
1460.747192,-3404.947333,148.041188,-78754.617194
1460.749764,1776.494261,-1184.329507,-78754.617194
1460.752337,5625.565159,-3404.947333,-79061.055394
1460.754910,4737.318029,-296.082377,-78448.178995
1460.757482,2812.782580,-3256.906145,-78907.836294
1460.760055,3701.029710,296.082377,-77682.083497
1460.762627,888.247130,-3404.947333,-78294.959896
1460.765200,2516.700203,-444.123565,-78907.836294
1460.767773,5477.523971,-888.247130,-78754.617194
1460.770345,7550.100608,-1184.329507,-78907.836294
1460.772918,7550.100608,-2072.576638,-79061.055394
1460.775491,2220.617826,-2220.617826,-80133.589091
1460.778063,6365.771101,148.041188,-80133.589091
1460.780636,-1776.494261,1036.288319,-80746.465489
1460.783210,2960.823768,-1776.494261,-80286.808190
1460.785784,4441.235652,-1924.535449,-77988.521696
1460.788359,1924.535449,-1332.370696,-78448.178995
1460.790933,296.082377,-888.247130,-80133.589091
1460.793507,-6069.688724,-1184.329507,-79214.274493
1460.796082,7402.059420,-2960.823768,-76456.330700
1460.798656,7402.059420,-888.247130,-77988.521696
1460.801230,11251.130318,-148.041188,-78448.178995
1460.803804,6217.729913,-1628.453072,-81972.218286
1460.806379,5625.565159,-148.041188,-80133.589091
1460.808953,-3849.070898,-1628.453072,-79214.274493
1460.811527,2960.823768,-1184.329507,-81359.341888
1460.814102,4145.153275,-1036.288319,-79980.369991
1460.816676,5773.606348,-740.205942,-79980.369991
1460.819250,1776.494261,0.000000,-76609.549800
1460.821824,-1036.288319,-3108.864956,-78294.959896
1460.824399,4441.235652,-1628.453072,-77682.083497
1460.826973,-7698.141797,-740.205942,-81818.999186
1460.829547,-10658.965565,444.123565,-80133.589091
1460.832122,-7105.977043,-1332.370696,-78601.398095
1460.834696,592.164754,-2072.576638,-80593.246390
1460.837270,2072.576638,-888.247130,-80286.808190
1460.839844,2516.700203,-1776.494261,-79673.931792
1460.842419,-8734.430116,0.000000,-77069.207099
1460.844993,-9770.718434,-3849.070898,-78294.959896
1460.847567,-13915.871710,-592.164754,-78448.178995
1460.850142,-1332.370696,-888.247130,-80133.589091
1460.852716,-1184.329507,-1776.494261,-78754.617194
1460.855290,7846.182985,-1628.453072,-76762.768900
1460.857864,-7402.059420,-1628.453072,-78294.959896
1460.860439,-4293.194464,-444.123565,-79980.369991
1460.863013,-3108.864956,-740.205942,-80593.246390
1460.865587,-3108.864956,-592.164754,-78907.836294
1460.868162,2664.741391,-4737.318029,-77375.645298
1460.870736,-5033.400406,148.041188,-77069.207099
1460.873310,-6661.853478,-444.123565,-80133.589091
1460.875884,-7846.182985,-2220.617826,-80286.808190
1460.878459,-11695.253884,-740.205942,-77988.521696
1460.881033,-5477.523971,-1332.370696,-78448.178995
1460.883607,-4737.318029,-296.082377,-77222.426198
1460.886183,-3108.864956,-2368.659014,-80440.027290
1460.888759,-3701.029710,-296.082377,-78907.836294
1460.891334,-2812.782580,-2072.576638,-81052.903688
1460.893910,-4441.235652,-1184.329507,-79061.055394
1460.896486,-1332.370696,-1332.370696,-79061.055394
1460.899061,-5773.606348,-148.041188,-79980.369991
1460.901637,3404.947333,-1628.453072,-78141.740796
1460.904213,4293.194464,-2516.700203,-79520.712692
1460.906788,10955.047942,-888.247130,-78294.959896
1460.909364,2072.576638,-2812.782580,-80133.589091
1460.911940,1924.535449,592.164754,-79214.274493
1460.914515,-296.082377,-2664.741391,-79214.274493
1460.917091,4145.153275,-592.164754,-79061.055394
1460.919667,6217.729913,-2516.700203,-80899.684589
1460.922242,8882.471304,444.123565,-78601.398095
1460.924818,5181.441594,-3404.947333,-79061.055394
1460.927394,5033.400406,-296.082377,-77375.645298
1460.929969,6809.894666,-592.164754,-77682.083497
1460.932545,5477.523971,-2960.823768,-77988.521696
1460.935121,5329.482782,-740.205942,-77069.207099
1460.937696,2072.576638,-3552.988522,-79061.055394
1460.940272,-2812.782580,444.123565,-77069.207099
1460.942848,-4441.235652,-2072.576638,-80746.465489
1460.945423,3108.864956,-1036.288319,-79061.055394
1460.947999,9030.512492,-444.123565,-79214.274493
1460.950575,9770.718434,-1184.329507,-78754.617194
1460.953150,9770.718434,-740.205942,-80286.808190
1460.955726,2368.659014,-2812.782580,-79827.150892
1460.958302,296.082377,-1184.329507,-78601.398095
1460.960877,6365.771101,-1332.370696,-80899.684589
1460.963453,2812.782580,-1332.370696,-79520.712692
1460.966029,5181.441594,-1036.288319,-79367.493593
1460.968604,4293.194464,-1480.411884,-78294.959896
1460.971180,1628.453072,-1184.329507,-78601.398095
1460.973756,296.082377,148.041188,-79214.274493
1460.976331,-9622.677246,-148.041188,-78754.617194
1460.978907,-9770.718434,-888.247130,-79214.274493
1460.981483,-5477.523971,-740.205942,-78754.617194
1460.984058,3849.070898,-1036.288319,-79980.369991
1460.986634,888.247130,-1924.535449,-79980.369991
1460.989209,1924.535449,-1184.329507,-79520.712692
1460.991784,-10214.842000,-444.123565,-78448.178995
1460.994359,-10658.965565,-1924.535449,-78754.617194
1460.996934,-9474.636058,-2220.617826,-79520.712692
1460.999509,-592.164754,-148.041188,-78448.178995
1461.002084,11991.336260,-2220.617826,-77988.521696
1461.004659,0.000000,-1036.288319,-79520.712692
1461.007235,-9030.512492,-1332.370696,-79827.150892
1461.009810,-1332.370696,-888.247130,-79367.493593
1461.012385,-3404.947333,-1924.535449,-79214.274493
1461.014960,-6217.729913,-2368.659014,-76149.892501
1461.017535,6661.853478,740.205942,-79061.055394
1461.020110,-9030.512492,-2664.741391,-80133.589091
1461.022685,-2368.659014,-296.082377,-75996.673402
1461.025260,-10362.883188,-2664.741391,-79980.369991
1461.027835,-10214.842000,-592.164754,-78754.617194
1461.030410,-4441.235652,-1480.411884,-80899.684589
1461.032985,-3552.988522,-740.205942,-80440.027290
1461.035560,-296.082377,-1480.411884,-78601.398095
1461.038136,-2812.782580,-592.164754,-81052.903688
1461.040711,-5329.482782,-2960.823768,-79827.150892
1461.043286,-2812.782580,1776.494261,-77835.302597
1461.045861,-6069.688724,-3108.864956,-78294.959896
1461.048436,1332.370696,-888.247130,-78907.836294
1461.051011,9622.677246,-1480.411884,-79980.369991
1461.053586,7846.182985,148.041188,-80286.808190
1461.056161,2516.700203,-2220.617826,-81359.341888
1461.058736,-444.123565,1036.288319,-78448.178995
1461.061311,-2664.741391,-3256.906145,-80440.027290
1461.063886,3108.864956,1036.288319,-78907.836294
1461.066461,8142.265362,-2812.782580,-80440.027290
1461.069037,10658.965565,740.205942,-77222.426198
1461.071612,5329.482782,-2960.823768,-78601.398095
1461.074187,3849.070898,-888.247130,-78294.959896
1461.076762,-6809.894666,-444.123565,-81206.122788
1461.079337,7105.977043,-2516.700203,-77069.207099
1461.081912,7105.977043,-740.205942,-79214.274493
1461.084487,-444.123565,-4737.318029,-82125.437386
1461.087062,740.205942,2960.823768,-78907.836294
1461.089637,-3404.947333,-2812.782580,-81818.999186
1461.092212,-1776.494261,-1332.370696,-76303.111601
1461.094787,8734.430116,-2812.782580,-77835.302597
1461.097363,9918.759623,-148.041188,-76915.987999
1461.099938,12139.377449,-1628.453072,-77528.864398
1461.102513,4885.359217,-2812.782580,-76303.111601
1461.105088,296.082377,-592.164754,-78294.959896
1461.107663,1332.370696,-1628.453072,-80899.684589
1461.110238,2664.741391,-444.123565,-81052.903688
1461.112813,5625.565159,-1036.288319,-80286.808190
1461.115388,3552.988522,-2220.617826,-78141.740796
1461.117964,2368.659014,-1036.288319,-77835.302597
1461.120539,-888.247130,-592.164754,-80593.246390
1461.123114,-13027.624579,-1924.535449,-78754.617194
1461.125689,-11991.336260,-296.082377,-77682.083497
1461.128264,-3552.988522,-1036.288319,-78448.178995
1461.130839,5773.606348,-444.123565,-79061.055394
1461.133414,5329.482782,-2812.782580,-79520.712692
1461.135990,-148.041188,-148.041188,-80133.589091
1461.138565,-10214.842000,1036.288319,-79061.055394
1461.141140,-14063.912898,-1036.288319,-79367.493593
1461.143715,-6513.812290,-3256.906145,-80899.684589
1461.146290,2960.823768,296.082377,-79673.931792
1461.148865,1776.494261,444.123565,-80133.589091
1461.151440,740.205942,-1776.494261,-78448.178995
1461.154015,-6069.688724,-1924.535449,-79214.274493
1461.156591,-5477.523971,-1036.288319,-77988.521696
1461.159166,-888.247130,-888.247130,-78754.617194
1461.161741,4441.235652,-3849.070898,-78294.959896
1461.164316,-6661.853478,-1480.411884,-77988.521696
1461.166891,-5921.647536,-2368.659014,-78907.836294
1461.169466,-11103.089130,888.247130,-76762.768900
1461.172041,-14211.954086,-2072.576638,-78907.836294
1461.174616,-8734.430116,-1776.494261,-79673.931792
1461.177192,-3701.029710,-2220.617826,-79827.150892
1461.179767,888.247130,-296.082377,-79061.055394
1461.182342,0.000000,-1036.288319,-81052.903688
1461.184917,-1332.370696,-2220.617826,-81052.903688
1461.187492,-1628.453072,888.247130,-78754.617194
1461.190067,-7550.100608,-4145.153275,-79980.369991
1461.192642,-4293.194464,592.164754,-77528.864398
1461.195167,7698.141797,-4145.153275,-80593.246390
1461.197691,9918.759623,-592.164754,-77069.207099
1461.200216,4441.235652,-2516.700203,-79367.493593
1461.202740,296.082377,-1332.370696,-78448.178995
1461.205265,-3701.029710,-1036.288319,-79214.274493
1461.207789,888.247130,-2220.617826,-78448.178995
1461.210314,7846.182985,-1036.288319,-79214.274493
1461.212838,11843.295072,-2072.576638,-79520.712692
1461.215363,8586.388927,-296.082377,-78448.178995
1461.217887,7105.977043,-2960.823768,-79520.712692
1461.220412,1332.370696,-2220.617826,-78141.740796
1461.222936,2664.741391,-1480.411884,-78601.398095
1461.225461,7254.018232,-740.205942,-78907.836294
1461.227985,3404.947333,-2812.782580,-80133.589091
1461.230510,0.000000,-1628.453072,-79214.274493
1461.233034,6513.812290,-1776.494261,-79367.493593
1461.235559,-6069.688724,-1332.370696,-78754.617194
1461.238083,4441.235652,-592.164754,-79061.055394
1461.240607,8734.430116,-3404.947333,-80593.246390
1461.243132,13767.830521,740.205942,-77375.645298
1461.245656,1776.494261,-1036.288319,-80133.589091
1461.248181,3404.947333,-2072.576638,-77988.521696
1461.250705,-1184.329507,-1628.453072,-80133.589091
1461.253230,4145.153275,-1924.535449,-77222.426198
1461.255754,1628.453072,-1036.288319,-78754.617194
1461.258279,3701.029710,-1332.370696,-78294.959896
1461.260803,6365.771101,-148.041188,-77988.521696
1461.263328,-3404.947333,-3256.906145,-80133.589091
1461.265852,-13915.871710,1628.453072,-78601.398095
1461.268377,-10658.965565,-3404.947333,-80286.808190
1461.270901,-2220.617826,-592.164754,-79061.055394
1461.273426,4737.318029,-1480.411884,-79520.712692
1461.275950,3552.988522,-1628.453072,-78294.959896
1461.278475,-2664.741391,148.041188,-78601.398095
1461.280999,-11251.130318,-1924.535449,-79061.055394
1461.283524,-16284.530724,-296.082377,-79367.493593
1461.286048,-7402.059420,-1776.494261,-78907.836294
1461.288573,6513.812290,-888.247130,-77528.864398
1461.291097,6069.688724,-1776.494261,-78141.740796
1461.293622,-7105.977043,-592.164754,-79214.274493
1461.296157,-3552.988522,-888.247130,-80899.684589
1461.298692,-2072.576638,-296.082377,-80593.246390
1461.301227,-3701.029710,888.247130,-79980.369991
1461.303763,3701.029710,-1628.453072,-79673.931792
1461.306298,0.000000,-888.247130,-80440.027290
1461.308833,-9178.553681,740.205942,-79827.150892
1461.311369,-14063.912898,-2072.576638,-80746.465489
1461.313904,-10807.006753,-740.205942,-78601.398095
1461.316439,-6957.935855,-1628.453072,-77682.083497
1461.318974,-148.041188,-1628.453072,-78907.836294
1461.321510,888.247130,-1776.494261,-78448.178995
1461.324045,-296.082377,-1332.370696,-78141.740796
1461.326580,-3256.906145,-1480.411884,-78754.617194
1461.329116,-9326.594869,148.041188,-78907.836294
1461.331651,-3404.947333,-1480.411884,-78907.836294
1461.334186,10214.842000,-1480.411884,-79367.493593
1461.336721,10362.883188,-1480.411884,-80440.027290
1461.339257,9622.677246,148.041188,-78141.740796
1461.341792,-1184.329507,-1332.370696,-79214.274493
1461.344327,-6513.812290,-1924.535449,-77988.521696
1461.346863,1628.453072,148.041188,-79980.369991
1461.349398,7105.977043,-2960.823768,-80440.027290
1461.351933,14656.077652,592.164754,-77528.864398
1461.354469,8142.265362,-3849.070898,-79061.055394
1461.357004,3849.070898,296.082377,-77682.083497
1461.359539,-4737.318029,-3701.029710,-82125.437386
1461.362074,-1628.453072,-1628.453072,-78754.617194
1461.364610,6809.894666,0.000000,-78754.617194
1461.367145,4293.194464,-2812.782580,-81512.560987
1461.369680,-3997.112087,148.041188,-78294.959896
1461.372216,6365.771101,-1184.329507,-78754.617194
1461.374751,-148.041188,-1184.329507,-78601.398095
1461.377295,7254.018232,-2072.576638,-79367.493593
1461.379839,10658.965565,-2664.741391,-80286.808190
1461.382383,8142.265362,-888.247130,-78294.959896
1461.384926,1776.494261,-1628.453072,-79827.150892
1461.387470,2368.659014,-2368.659014,-78907.836294
1461.390014,888.247130,-1332.370696,-78601.398095
1461.392558,3997.112087,-444.123565,-77988.521696
1461.395102,2072.576638,-2368.659014,-79520.712692
1461.397646,7402.059420,-2072.576638,-78448.178995
1461.400190,3849.070898,444.123565,-79673.931792
1461.402734,-13027.624579,-148.041188,-79214.274493
1461.405278,-12435.459826,-1776.494261,-77682.083497
1461.407822,-4885.359217,-2368.659014,-79061.055394
1461.410365,3256.906145,444.123565,-79980.369991
1461.412909,5773.606348,-3404.947333,-80746.465489
1461.415453,-296.082377,1924.535449,-77069.207099
1461.417997,-9178.553681,-3701.029710,-80440.027290
1461.420541,-14359.995275,296.082377,-78141.740796
1461.423085,-11399.171507,-2516.700203,-79367.493593
1461.425629,6365.771101,-2220.617826,-77375.645298
1461.428173,4589.276840,740.205942,-77375.645298
1461.430717,-6217.729913,-3552.988522,-79980.369991
1461.433261,-2664.741391,1924.535449,-79673.931792
1461.435804,-3552.988522,-2516.700203,-81818.999186
1461.438348,-2220.617826,-1480.411884,-77835.302597
1461.440892,888.247130,-2664.741391,-79520.712692
1461.443436,740.205942,-1332.370696,-78907.836294
1461.445980,-11103.089130,-592.164754,-78294.959896
1461.448524,-10510.924376,-148.041188,-79061.055394
1461.451068,-12583.501014,-740.205942,-78448.178995
1461.453612,-6809.894666,-2368.659014,-79367.493593
1461.456156,-888.247130,-1776.494261,-79214.274493
1461.458700,3701.029710,-1036.288319,-79061.055394
1461.461244,-4441.235652,-296.082377,-79980.369991
1461.463787,-5033.400406,-888.247130,-79367.493593
1461.466331,-9770.718434,-1480.411884,-78294.959896
1461.468875,-296.082377,-592.164754,-78294.959896
1461.471419,9178.553681,-2664.741391,-78754.617194
1461.473963,15248.242405,-888.247130,-79214.274493
1461.476507,6957.935855,-2072.576638,-80133.589091
1461.479058,444.123565,-148.041188,-78294.959896
1461.481609,-6809.894666,-1924.535449,-80286.808190
1461.484160,1036.288319,-740.205942,-79367.493593
1461.486711,7105.977043,-2368.659014,-78907.836294
1461.489262,16136.489536,-1332.370696,-78754.617194
1461.491813,5329.482782,-444.123565,-78294.959896
1461.494364,-4145.153275,-2072.576638,-79673.931792
1461.496914,-3256.906145,148.041188,-78754.617194
1461.499465,-296.082377,-2220.617826,-78754.617194
1461.502016,1924.535449,-1036.288319,-77528.864398
1461.504567,5773.606348,-1776.494261,-78141.740796
1461.507118,2516.700203,-444.123565,-79214.274493
1461.509669,-6069.688724,-592.164754,-79980.369991
1461.512220,1776.494261,-2516.700203,-81206.122788
1461.514771,7550.100608,-592.164754,-77528.864398
1461.517322,13027.624579,-2516.700203,-78294.959896
1461.519873,8438.347739,-1776.494261,-76609.549800
1461.522424,5773.606348,-148.041188,-79061.055394
1461.524975,-2812.782580,-1924.535449,-79673.931792
1461.527526,1332.370696,-1332.370696,-78141.740796
1461.530077,1184.329507,-2664.741391,-79214.274493
1461.532628,5921.647536,-1480.411884,-79673.931792
1461.535179,6513.812290,-1924.535449,-79980.369991
1461.537729,-5773.606348,0.000000,-79827.150892
1461.540280,-14211.954086,-296.082377,-79520.712692
1461.542831,-7994.224174,-148.041188,-78601.398095
1461.545382,-1776.494261,-1776.494261,-81359.341888
1461.547933,6513.812290,-740.205942,-78754.617194
1461.550484,4441.235652,-1776.494261,-78907.836294
1461.553035,-4737.318029,-2072.576638,-78448.178995
1461.555586,-11991.336260,-1036.288319,-78294.959896
1461.558137,-17912.983796,-2368.659014,-81359.341888
1461.560688,-9770.718434,444.123565,-80286.808190
1461.563239,6957.935855,-2368.659014,-79520.712692
1461.565790,-4145.153275,-296.082377,-79214.274493
1461.568341,444.123565,740.205942,-79214.274493
1461.570892,-3108.864956,-2220.617826,-80133.589091
1461.573443,-740.205942,-1924.535449,-78141.740796
1461.575994,0.000000,-2072.576638,-78601.398095
1461.578544,-6069.688724,-148.041188,-78141.740796
1461.581095,-3701.029710,-2072.576638,-77682.083497
1461.583646,-12139.377449,-2220.617826,-80286.808190
1461.586197,-14508.036463,592.164754,-78448.178995
1461.588748,-8142.265362,-2220.617826,-79673.931792
1461.591299,-1628.453072,-2516.700203,-78754.617194
1461.593850,3849.070898,-1776.494261,-79980.369991
1461.596401,592.164754,-296.082377,-78601.398095
1461.598952,-2664.741391,-148.041188,-79673.931792
1461.601508,-10214.842000,-740.205942,-78907.836294
1461.604063,-1332.370696,-1036.288319,-78448.178995
1461.606619,8142.265362,-2960.823768,-78601.398095
1461.609175,14804.118840,-1332.370696,-77835.302597
1461.611730,6365.771101,-2368.659014,-79673.931792
1461.614286,2516.700203,1628.453072,-78601.398095
1461.616842,-5921.647536,-2812.782580,-80286.808190
1461.619398,-148.041188,-740.205942,-79214.274493
1461.621953,6957.935855,-888.247130,-78907.836294
1461.624509,12435.459826,-2072.576638,-79214.274493
1461.627065,3701.029710,-1184.329507,-76456.330700
1461.629620,5921.647536,-1628.453072,-78601.398095
1461.632176,-740.205942,-2812.782580,-79214.274493
1461.634732,2516.700203,-1036.288319,-81359.341888
1461.637287,0.000000,-1036.288319,-80899.684589
1461.639843,3849.070898,-888.247130,-78448.178995
1461.642399,5181.441594,-444.123565,-80286.808190
1461.644954,-2072.576638,-592.164754,-80286.808190
1461.647510,10214.842000,-592.164754,-77682.083497
1461.650066,5921.647536,-3108.864956,-79827.150892
1461.652622,14952.160028,-1628.453072,-78448.178995
1461.655177,4589.276840,-1036.288319,-78907.836294
1461.657733,5329.482782,-1480.411884,-79214.274493
1461.660289,-592.164754,-1036.288319,-79061.055394
1461.662844,-148.041188,-3256.906145,-79827.150892
1461.665400,1628.453072,-888.247130,-76915.987999
1461.667956,10362.883188,-2516.700203,-78294.959896
1461.670511,1480.411884,-1332.370696,-78448.178995
1461.673067,-10955.047942,296.082377,-80133.589091
1461.675623,-14211.954086,-148.041188,-79367.493593
1461.678178,-8142.265362,-2664.741391,-80593.246390
1461.680734,2220.617826,-1184.329507,-79214.274493
1461.683290,6809.894666,296.082377,-79673.931792
1461.685846,-592.164754,-2072.576638,-79214.274493
1461.688401,-7402.059420,148.041188,-78601.398095
1461.690957,-16284.530724,-1924.535449,-79367.493593
1461.693513,-11251.130318,-148.041188,-78754.617194
1461.696068,2368.659014,-2664.741391,-79520.712692
1461.698624,1628.453072,444.123565,-77835.302597
1461.701180,4441.235652,-2220.617826,-81512.560987
1461.703739,-7402.059420,-1628.453072,-80746.465489
1461.706299,-9474.636058,0.000000,-79214.274493
1461.708859,8438.347739,-2960.823768,-80899.684589
1461.711418,-4589.276840,-1036.288319,-77375.645298
1461.713978,592.164754,-740.205942,-77682.083497
1461.716538,-11991.336260,-1628.453072,-80286.808190
1461.719097,-10510.924376,592.164754,-78448.178995
1461.721657,-14952.160028,-2220.617826,-81818.999186
1461.724217,-1184.329507,-3108.864956,-78754.617194
1461.726776,2812.782580,296.082377,-78601.398095
1461.729336,2368.659014,-2516.700203,-79980.369991
1461.731896,-1480.411884,1036.288319,-78754.617194
1461.734455,-9770.718434,-2516.700203,-79673.931792
1461.737015,-4293.194464,-740.205942,-77069.207099
1461.739575,8290.306550,-3701.029710,-80133.589091
1461.742134,11399.171507,-888.247130,-78907.836294
1461.744694,7550.100608,-1480.411884,-78141.740796
1461.747254,3404.947333,-444.123565,-78448.178995
1461.749813,-1924.535449,-2516.700203,-80286.808190
1461.752373,-1924.535449,-740.205942,-79214.274493
1461.754933,5329.482782,-1924.535449,-79673.931792
1461.757492,11843.295072,-740.205942,-77682.083497
1461.760052,3997.112087,-1184.329507,-77835.302597
1461.762612,888.247130,-1036.288319,-80899.684589
1461.765171,1776.494261,-2368.659014,-78601.398095
1461.767731,-148.041188,-1480.411884,-79520.712692
1461.770291,6365.771101,-2812.782580,-79980.369991
1461.772851,1332.370696,-1628.453072,-79061.055394
1461.775410,5477.523971,296.082377,-80440.027290
1461.777970,-1776.494261,-1332.370696,-79520.712692
1461.780530,6809.894666,-3108.864956,-79520.712692
1461.783089,11843.295072,-2664.741391,-77069.207099
1461.785652,10510.924376,-3256.906145,-79061.055394
1461.788215,8290.306550,-1036.288319,-78601.398095
1461.790778,3552.988522,-1184.329507,-78754.617194
1461.793341,-4589.276840,-3552.988522,-79520.712692
1461.795904,592.164754,-888.247130,-77682.083497
1461.798467,2664.741391,-1924.535449,-79827.150892
1461.801029,9178.553681,-444.123565,-77222.426198
1461.803592,-6069.688724,-1184.329507,-80746.465489
1461.806155,-15248.242405,-1480.411884,-79520.712692
1461.808718,-9622.677246,-444.123565,-79214.274493
1461.811281,-888.247130,-2664.741391,-80133.589091
1461.813844,2960.823768,0.000000,-77988.521696
1461.816407,3108.864956,-2812.782580,-79520.712692
1461.818970,-3849.070898,148.041188,-77222.426198
1461.821533,-11695.253884,-2664.741391,-79520.712692
1461.824096,-11695.253884,-888.247130,-79520.712692
1461.826658,1184.329507,-2664.741391,-78141.740796
1461.829221,4293.194464,-1776.494261,-77988.521696
1461.831784,2812.782580,-2368.659014,-78448.178995
1461.834347,-7994.224174,-592.164754,-80746.465489
1461.836910,-3849.070898,-148.041188,-77988.521696
1461.839473,-3701.029710,-2220.617826,-79214.274493
1461.842036,-5921.647536,-740.205942,-75537.016103
1461.844599,-5625.565159,-2960.823768,-78294.959896
1461.847162,-11103.089130,148.041188,-78907.836294
1461.849725,-13767.830521,-1628.453072,-79061.055394
1461.852287,-11695.253884,-1332.370696,-78601.398095
1461.854850,-5033.400406,-2368.659014,-78448.178995
1461.857413,3108.864956,-888.247130,-78754.617194
1461.859976,888.247130,-1332.370696,-78907.836294
1461.862539,444.123565,-1480.411884,-81206.122788
1461.865102,-9178.553681,-888.247130,-79367.493593
1461.867665,-2220.617826,-1776.494261,-80899.684589
1461.870228,7105.977043,-2368.659014,-79061.055394
1461.872791,11695.253884,-1924.535449,-79367.493593
1461.875353,6809.894666,0.000000,-77988.521696
1461.877916,3256.906145,-740.205942,-78601.398095
1461.880479,-1036.288319,-1332.370696,-78907.836294
1461.883042,-1184.329507,-1628.453072,-79827.150892
1461.885605,4737.318029,-888.247130,-79520.712692
1461.888127,9918.759623,-2072.576638,-79214.274493
1461.890649,-148.041188,-444.123565,-77528.864398
1461.893171,-592.164754,-1480.411884,-79673.931792
1461.895693,3701.029710,-1332.370696,-77222.426198
1461.898216,-3701.029710,-1628.453072,-79367.493593
1461.900738,2516.700203,-2220.617826,-77682.083497
1461.903260,3552.988522,-1924.535449,-79673.931792
1461.905782,148.041188,-148.041188,-79673.931792
1461.908304,5181.441594,-444.123565,-79980.369991
1461.910826,8882.471304,-1480.411884,-81052.903688
1461.913348,11251.130318,-592.164754,-80286.808190
1461.915870,8290.306550,-2368.659014,-79520.712692
1461.918392,8586.388927,-1480.411884,-77069.207099
1461.920914,1036.288319,-2812.782580,-78294.959896
1461.923436,0.000000,740.205942,-77375.645298
1461.925958,-2516.700203,-4293.194464,-80133.589091
1461.928481,7994.224174,444.123565,-76456.330700
1461.931003,2664.741391,-2516.700203,-79367.493593
1461.933525,-9622.677246,148.041188,-78754.617194
1461.936047,-12287.418637,-148.041188,-80440.027290
1461.938569,-8882.471304,-740.205942,-80286.808190
1461.941091,592.164754,-1480.411884,-80593.246390
1461.943613,3108.864956,-1184.329507,-79827.150892
1461.946135,1184.329507,-740.205942,-78294.959896
1461.948657,-8586.388927,-1480.411884,-79980.369991
1461.951179,-17024.736666,-2368.659014,-78907.836294
1461.953701,-12583.501014,-1332.370696,-78754.617194
1461.956223,592.164754,1332.370696,-78141.740796
1461.958746,5329.482782,-1628.453072,-79520.712692
1461.961268,-1776.494261,-1332.370696,-80440.027290
1461.963790,-6809.894666,-888.247130,-80899.684589
1461.966312,-2220.617826,444.123565,-79980.369991
1461.968834,-4885.359217,740.205942,-80899.684589
1461.971356,-5773.606348,-2220.617826,-80133.589091
1461.973878,-6365.771101,-1776.494261,-79214.274493
1461.976400,-11547.212695,-1776.494261,-75843.454302
1461.978922,-14508.036463,-1184.329507,-76915.987999
1461.981444,-8438.347739,-2220.617826,-79520.712692
1461.983966,-1036.288319,-1036.288319,-81052.903688
1461.986488,4441.235652,592.164754,-75996.673402
1461.989022,1776.494261,-1036.288319,-78141.740796
1461.991555,-8142.265362,-444.123565,-80440.027290
1461.994088,-7846.182985,-740.205942,-80899.684589
1461.996621,6513.812290,-1480.411884,-80133.589091
1461.999154,9030.512492,-2960.823768,-78601.398095
1462.001687,11695.253884,-2368.659014,-77682.083497
1462.004220,3552.988522,-1332.370696,-77988.521696
1462.006754,740.205942,-2812.782580,-79367.493593
1462.009287,-1184.329507,-1628.453072,-78754.617194
1462.011820,3404.947333,-1924.535449,-79061.055394
1462.014353,8586.388927,-1036.288319,-78294.959896
1462.016886,2664.741391,-740.205942,-78907.836294
1462.019419,4737.318029,-1332.370696,-78754.617194
1462.021952,2812.782580,-888.247130,-78601.398095
1462.024485,-740.205942,-1776.494261,-80440.027290
1462.027019,-6069.688724,-3108.864956,-77528.864398
1462.029552,17320.819043,-1184.329507,-77835.302597
1462.032085,-4737.318029,-1332.370696,-81206.122788
1462.034618,5033.400406,1628.453072,-79367.493593
1462.037151,3404.947333,-3552.988522,-83044.751983
1462.039684,13323.706956,1184.329507,-76303.111601
1462.042217,5329.482782,-6365.771101,-77682.083497
1462.044750,9918.759623,296.082377,-77375.645298
1462.047284,592.164754,-3256.906145,-77682.083497
1462.049817,-1924.535449,444.123565,-78907.836294
1462.052350,-2664.741391,-4441.235652,-78448.178995
1462.054883,7402.059420,1332.370696,-78448.178995
1462.057416,888.247130,-4441.235652,-80286.808190
1462.059949,-8734.430116,2812.782580,-78754.617194
1462.062482,-12139.377449,-2960.823768,-79673.931792
1462.065015,-7994.224174,-592.164754,-79367.493593
1462.067549,-444.123565,-2220.617826,-80133.589091
1462.070082,4293.194464,-148.041188,-79673.931792
1462.072615,148.041188,-888.247130,-78754.617194
1462.075148,-9178.553681,-2220.617826,-78601.398095
1462.077681,-14211.954086,-592.164754,-78907.836294
1462.080214,-4293.194464,-1184.329507,-80133.589091
1462.082747,2220.617826,-740.205942,-79520.712692
1462.085280,-1924.535449,-740.205942,-79827.150892
1462.087814,2072.576638,-1480.411884,-78754.617194
1462.090356,-2072.576638,-1480.411884,-79673.931792
1462.092899,-2368.659014,-1776.494261,-80746.465489
1462.095441,1628.453072,1332.370696,-78448.178995
1462.097984,-5329.482782,-2664.741391,-78448.178995
1462.100526,-6809.894666,-1184.329507,-78907.836294
1462.103069,-15396.283594,-1184.329507,-79214.274493
1462.105611,-9326.594869,-1184.329507,-79061.055394
1462.108154,-4885.359217,-1776.494261,-79827.150892
1462.110697,2072.576638,-888.247130,-78907.836294
1462.113239,4737.318029,-2072.576638,-78601.398095
1462.115782,-3108.864956,-2072.576638,-77988.521696
1462.118324,-8586.388927,-740.205942,-78907.836294
1462.120867,296.082377,-592.164754,-79827.150892
1462.123409,7846.182985,-2368.659014,-79520.712692
1462.125952,11547.212695,-2664.741391,-79673.931792
1462.128494,5181.441594,-1776.494261,-78294.959896
1462.131037,2072.576638,-444.123565,-79673.931792
1462.133579,-2368.659014,-1776.494261,-79520.712692
1462.136122,1036.288319,-1036.288319,-79061.055394
1462.138665,8586.388927,-1924.535449,-79827.150892
1462.141207,15248.242405,-1776.494261,-77222.426198
1462.143750,3849.070898,148.041188,-79673.931792
1462.146292,-4589.276840,-1184.329507,-81359.341888
1462.148835,2516.700203,148.041188,-79214.274493
1462.151377,-2960.823768,-2960.823768,-80746.465489
1462.153920,1332.370696,-592.164754,-79214.274493
1462.156462,7105.977043,-1776.494261,-79520.712692
1462.159005,3997.112087,-888.247130,-78141.740796
1462.161547,6957.935855,-1776.494261,-79214.274493
1462.164090,7402.059420,-1480.411884,-79520.712692
1462.166633,8290.306550,-1480.411884,-79367.493593
1462.169175,7698.141797,-1036.288319,-79827.150892
1462.171718,444.123565,-1480.411884,-78448.178995
1462.174260,-1776.494261,-1776.494261,-79061.055394
1462.176803,-1776.494261,-296.082377,-79673.931792
1462.179345,6365.771101,-2368.659014,-80746.465489
1462.181888,-740.205942,-888.247130,-77528.864398
1462.184430,-11251.130318,-1480.411884,-78601.398095
1462.186973,-10807.006753,-1480.411884,-77835.302597
1462.189515,-6365.771101,-1628.453072,-80133.589091
1462.192066,1480.411884,-1924.535449,-78141.740796
1462.194616,3849.070898,-1776.494261,-78141.740796
1462.197167,-2960.823768,-1480.411884,-77682.083497
1462.199717,-9030.512492,740.205942,-78601.398095
1462.202268,-11547.212695,-3404.947333,-80746.465489
1462.204818,-12139.377449,1480.411884,-81359.341888
1462.207368,-1184.329507,-888.247130,-80440.027290
1462.209919,3404.947333,-1628.453072,-80286.808190
1462.212469,-1184.329507,-2516.700203,-80133.589091
1462.215020,-2072.576638,-592.164754,-78907.836294
1462.217570,-5329.482782,-444.123565,-78907.836294
1462.220121,-6513.812290,-1480.411884,-77375.645298
1462.222671,-5921.647536,-2664.741391,-76762.768900
1462.225221,-11991.336260,-592.164754,-77835.302597
1462.227772,-15248.242405,-2516.700203,-80286.808190
1462.230322,-7105.977043,-1332.370696,-77988.521696
1462.232873,-1036.288319,-1776.494261,-78754.617194
1462.235423,3256.906145,-1480.411884,-79367.493593
1462.237974,1480.411884,-444.123565,-80286.808190
1462.240524,-5477.523971,-296.082377,-79367.493593
1462.243074,-6069.688724,-1924.535449,-79520.712692
1462.245625,4885.359217,-444.123565,-79061.055394
1462.248175,8438.347739,-1332.370696,-79214.274493
1462.250726,9474.636058,-3256.906145,-79827.150892
1462.253276,3552.988522,444.123565,-78601.398095
1462.255827,-444.123565,-1776.494261,-79520.712692
1462.258377,-1184.329507,-296.082377,-78601.398095
1462.260927,3701.029710,-2220.617826,-79520.712692
1462.263478,11251.130318,-592.164754,-78141.740796
1462.266028,444.123565,-1924.535449,-79673.931792
1462.268579,-1924.535449,-1480.411884,-79367.493593
1462.271129,-148.041188,-740.205942,-81206.122788
1462.273680,-2516.700203,-1184.329507,-81359.341888
1462.276230,-296.082377,-592.164754,-77988.521696
1462.278780,8290.306550,-2368.659014,-77988.521696
1462.281331,4145.153275,-1628.453072,-78141.740796
1462.283881,7254.018232,-1776.494261,-80286.808190
1462.286432,6957.935855,-444.123565,-80899.684589
1462.288982,9918.759623,1332.370696,-80746.465489
1462.291533,8438.347739,-1184.329507,-80286.808190
1462.294088,3256.906145,-296.082377,-79673.931792
1462.296644,-1332.370696,-1036.288319,-79827.150892
1462.299200,-1184.329507,-2072.576638,-79061.055394
1462.301756,4293.194464,-1036.288319,-78448.178995
1462.304312,5329.482782,-1332.370696,-78448.178995
1462.306868,-8586.388927,-592.164754,-78448.178995
1462.309424,-12879.583391,-888.247130,-78907.836294
1462.311980,-8586.388927,-1628.453072,-78754.617194
1462.314535,2368.659014,-1924.535449,-78601.398095
1462.317091,1776.494261,-296.082377,-79214.274493
1462.319647,740.205942,-1332.370696,-79673.931792
1462.322203,-7994.224174,-1628.453072,-78907.836294
1462.324759,-10362.883188,-1184.329507,-77835.302597
1462.327315,-14508.036463,-444.123565,-79520.712692
1462.329871,-4441.235652,-2072.576638,-80440.027290
1462.332426,148.041188,-2812.782580,-79673.931792
1462.334982,-1628.453072,-740.205942,-79980.369991
1462.337538,-5921.647536,-1036.288319,-79061.055394
1462.340094,3404.947333,-2812.782580,-80133.589091
1462.342650,-2368.659014,-1332.370696,-77069.207099
1462.345206,-7994.224174,148.041188,-80286.808190
1462.347762,-14359.995275,-2220.617826,-79367.493593
1462.350318,-12731.542202,592.164754,-79827.150892
1462.352873,-8438.347739,-2812.782580,-81512.560987
1462.355429,296.082377,888.247130,-79367.493593
1462.357985,-1184.329507,-2664.741391,-79520.712692
1462.360541,3552.988522,1036.288319,-76609.549800
1462.363097,-7994.224174,-2664.741391,-78907.836294
1462.365653,-4441.235652,-1036.288319,-77835.302597
1462.368209,3997.112087,-1332.370696,-80746.465489
1462.370765,9770.718434,-888.247130,-79214.274493
1462.373320,6513.812290,-2072.576638,-79980.369991
1462.375876,2368.659014,-296.082377,-79367.493593
1462.378432,-888.247130,-1924.535449,-80593.246390
1462.380988,1036.288319,-148.041188,-79673.931792
1462.383544,3701.029710,-2664.741391,-78141.740796
1462.386100,7402.059420,-1184.329507,-79367.493593
1462.388656,11547.212695,-2072.576638,-77375.645298
1462.391211,1924.535449,-1184.329507,-79520.712692
1462.393767,-1924.535449,-1036.288319,-77835.302597
1462.396288,-148.041188,148.041188,-78601.398095
1462.398808,-148.041188,-2516.700203,-79673.931792
1462.401328,4293.194464,-1332.370696,-78754.617194
1462.403849,7105.977043,-1776.494261,-79980.369991
1462.406369,7698.141797,888.247130,-78754.617194
1462.408889,10658.965565,-1924.535449,-80440.027290
1462.411410,10658.965565,296.082377,-79673.931792
1462.413930,5773.606348,-2072.576638,-78907.836294
1462.416450,2220.617826,-592.164754,-79673.931792
1462.418971,-1776.494261,-296.082377,-78907.836294
1462.421491,-148.041188,-2072.576638,-79673.931792
1462.424011,7105.977043,-148.041188,-78141.740796
1462.426532,-888.247130,-1480.411884,-78907.836294
1462.429052,-10807.006753,148.041188,-78754.617194
1462.431572,-11103.089130,-2072.576638,-78601.398095
1462.434093,-5477.523971,-888.247130,-79061.055394
1462.436613,2516.700203,-1776.494261,-78294.959896
1462.439133,4589.276840,-1184.329507,-78448.178995
1462.441654,0.000000,-1332.370696,-79061.055394
1462.444174,-14359.995275,-1776.494261,-78294.959896
1462.446694,-17172.777854,444.123565,-79367.493593
1462.449215,-6217.729913,-2516.700203,-78754.617194
1462.451735,3404.947333,296.082377,-75690.235202
1462.454255,2072.576638,-1628.453072,-79061.055394
1462.456776,-3256.906145,-2812.782580,-77682.083497
1462.459296,2220.617826,-1036.288319,-79061.055394
1462.461816,-4441.235652,-1776.494261,-81359.341888
1462.464337,-7994.224174,592.164754,-79827.150892
1462.466857,-9622.677246,-3256.906145,-81972.218286
1462.469377,-13175.665768,1036.288319,-76303.111601
1462.471897,-11103.089130,-3701.029710,-81206.122788
1462.474418,-2664.741391,148.041188,-79673.931792
1462.476938,2664.741391,-1480.411884,-77682.083497
1462.479458,3256.906145,-1184.329507,-77988.521696
1462.481979,-4885.359217,-740.205942,-78754.617194
1462.484499,-6957.935855,-1332.370696,-79061.055394
1462.487019,4441.235652,-2960.823768,-80593.246390
1462.489540,7402.059420,-1776.494261,-79980.369991
1462.492060,15840.407159,-888.247130,-77835.302597
1462.494580,1036.288319,-3108.864956,-79673.931792
1462.497115,3701.029710,-888.247130,-78448.178995
1462.499648,-1184.329507,0.000000,-79827.150892
1462.502180,1924.535449,-1776.494261,-78754.617194
1462.504713,6069.688724,-1036.288319,-78601.398095
1462.507245,5329.482782,-2664.741391,-80286.808190
1462.509778,4145.153275,-888.247130,-78294.959896
1462.512310,-1036.288319,-1184.329507,-80593.246390
1462.514843,-5033.400406,-1184.329507,-78601.398095
1462.517376,1036.288319,-1924.535449,-77528.864398
1462.519908,3256.906145,-148.041188,-77222.426198
1462.522441,6217.729913,-2368.659014,-79673.931792
1462.524973,6809.894666,-592.164754,-80440.027290
1462.527506,9474.636058,-1184.329507,-81206.122788
1462.530038,11251.130318,-592.164754,-77835.302597
1462.532571,4737.318029,-148.041188,-80746.465489
1462.535103,592.164754,-888.247130,-80593.246390
1462.537636,-296.082377,-1184.329507,-78754.617194
1462.540169,1184.329507,-3404.947333,-77835.302597
1462.542701,6513.812290,-1184.329507,-78448.178995
1462.545234,-3849.070898,-2220.617826,-80746.465489
1462.547766,-12139.377449,1776.494261,-79520.712692
1462.550299,-11251.130318,-1036.288319,-78907.836294
1462.552831,-2516.700203,-1184.329507,-80133.589091
1462.555364,740.205942,-1776.494261,-79827.150892
1462.557896,2812.782580,-444.123565,-79214.274493
1462.560429,-3256.906145,-2368.659014,-78448.178995
1462.562961,-11399.171507,-1480.411884,-78294.959896
1462.565494,-10955.047942,-1776.494261,-78294.959896
1462.568027,-4441.235652,296.082377,-80133.589091
1462.570559,-2664.741391,-444.123565,-80593.246390
1462.573092,-1480.411884,-1628.453072,-76456.330700
1462.575624,-2220.617826,-1924.535449,-79520.712692
1462.578157,-1776.494261,-444.123565,-80133.589091
1462.580689,-5329.482782,-444.123565,-80133.589091
1462.583222,-5329.482782,-444.123565,-78754.617194
1462.585754,-14211.954086,-2664.741391,-78601.398095
1462.588287,-8142.265362,1480.411884,-77988.521696
1462.590819,-8142.265362,-2516.700203,-79520.712692
1462.593352,-1924.535449,-1924.535449,-78907.836294
1462.595885,3404.947333,-1628.453072,-79827.150892
1462.598427,-3256.906145,-1628.453072,-79061.055394
1462.600970,-6513.812290,296.082377,-78754.617194
1462.603513,1628.453072,-3701.029710,-80286.808190
1462.606055,9770.718434,-888.247130,-79367.493593
1462.608598,10362.883188,-3256.906145,-79827.150892
1462.611141,4885.359217,-1036.288319,-77528.864398
1462.613683,1776.494261,-888.247130,-79673.931792
1462.616226,0.000000,-1924.535449,-79827.150892
1462.618769,2516.700203,-1036.288319,-79367.493593
1462.621311,8142.265362,-888.247130,-78448.178995
1462.623854,1924.535449,-1184.329507,-78141.740796
1462.626397,2812.782580,-1924.535449,-78907.836294
1462.628939,2516.700203,-1480.411884,-79367.493593
1462.631482,-4885.359217,-1184.329507,-79980.369991
1462.634025,888.247130,-1332.370696,-77528.864398
1462.636567,3256.906145,-3404.947333,-79061.055394
1462.639110,4145.153275,-1628.453072,-77069.207099
1462.641653,8734.430116,444.123565,-79214.274493
1462.644196,11843.295072,-1332.370696,-79827.150892
1462.646738,10510.924376,444.123565,-79980.369991
1462.649281,4145.153275,-2960.823768,-80746.465489
1462.651824,2516.700203,-148.041188,-77222.426198
1462.654366,-1036.288319,-1776.494261,-80899.684589
1462.656909,2072.576638,-2220.617826,-78907.836294
1462.659452,5773.606348,-888.247130,-78294.959896
1462.661994,-3108.864956,-592.164754,-77069.207099
1462.664537,-12435.459826,-1036.288319,-77069.207099
1462.667080,-11103.089130,-2220.617826,-79520.712692
1462.669622,-5921.647536,-1184.329507,-80746.465489
1462.672165,1332.370696,-1036.288319,-79367.493593
1462.674708,3701.029710,-444.123565,-77835.302597
1462.677250,-3108.864956,-2368.659014,-79367.493593
1462.679793,-10362.883188,-2072.576638,-79367.493593
1462.682336,-9622.677246,148.041188,-79827.150892
1462.684878,-3108.864956,-1924.535449,-80286.808190
1462.687421,-2368.659014,-2664.741391,-78907.836294
1462.689964,740.205942,0.000000,-78294.959896
1462.692506,148.041188,-1036.288319,-77222.426198
1462.695049,-4293.194464,-1332.370696,-78448.178995
1462.697592,-2664.741391,-888.247130,-78754.617194
1462.700104,-11695.253884,-888.247130,-75996.673402
1462.702616,-12287.418637,-1924.535449,-78601.398095
1462.705129,-10955.047942,-1480.411884,-80286.808190
1462.707641,-5181.441594,740.205942,-81052.903688
1462.710153,-2812.782580,-1332.370696,-79673.931792
1462.712666,3552.988522,-1628.453072,-77988.521696
1462.715178,-7402.059420,-1036.288319,-79673.931792
1462.717690,-3997.112087,0.000000,-78601.398095
1462.720203,1184.329507,-2960.823768,-79980.369991
1462.722715,11251.130318,-1332.370696,-78294.959896
1462.725227,11547.212695,-2516.700203,-79367.493593
1462.727740,6069.688724,-1332.370696,-78141.740796
1462.730252,1036.288319,-1332.370696,-79827.150892
1462.732764,-444.123565,-148.041188,-80133.589091
1462.735277,0.000000,-888.247130,-80899.684589
1462.737789,9474.636058,-1036.288319,-79214.274493
1462.740301,4293.194464,-2368.659014,-79367.493593
1462.742814,7994.224174,-740.205942,-78141.740796
1462.745326,-296.082377,-2368.659014,-78294.959896
1462.747838,592.164754,-1036.288319,-79214.274493
1462.750351,-1184.329507,-888.247130,-80746.465489
1462.752863,1924.535449,-1332.370696,-78448.178995
1462.755375,14211.954086,-1628.453072,-78294.959896
1462.757888,5625.565159,-2220.617826,-81512.560987
1462.760400,14063.912898,888.247130,-78448.178995
1462.762912,5773.606348,-2516.700203,-79520.712692
1462.765425,6365.771101,-1332.370696,-78907.836294
1462.767937,-1776.494261,-1036.288319,-79367.493593
1462.770449,888.247130,-2220.617826,-78754.617194
1462.772962,1480.411884,-888.247130,-78294.959896
1462.775474,6513.812290,-1628.453072,-77682.083497
1462.777986,-11399.171507,-1480.411884,-78601.398095
1462.780498,-11251.130318,-148.041188,-77528.864398
1462.783011,-14508.036463,-1776.494261,-79214.274493
1462.785523,1036.288319,-148.041188,-80440.027290
1462.788035,444.123565,-1776.494261,-79520.712692
1462.790548,4737.318029,-148.041188,-78907.836294
1462.793060,-7550.100608,-2664.741391,-79827.150892
1462.795572,-18061.024985,888.247130,-79673.931792
1462.798085,-9918.759623,-5625.565159,-82125.437386
1462.800612,1184.329507,444.123565,-75843.454302
1462.803139,2516.700203,-2368.659014,-79061.055394
1462.805665,-5477.523971,-1480.411884,-77835.302597
1462.808192,2516.700203,0.000000,-80286.808190
1462.810719,-9770.718434,-2072.576638,-80899.684589
1462.813246,-8882.471304,-148.041188,-78294.959896
1462.815773,-14063.912898,-2220.617826,-79980.369991
1462.818300,-9326.594869,-444.123565,-78601.398095
1462.820827,-6661.853478,-3404.947333,-80440.027290
1462.823354,-1184.329507,296.082377,-79061.055394
1462.825881,-2516.700203,-1924.535449,-79214.274493
1462.828408,-1036.288319,-296.082377,-77988.521696
1462.830935,-7550.100608,-1924.535449,-79673.931792
1462.833462,-1332.370696,-1036.288319,-78907.836294
1462.835988,10362.883188,-1184.329507,-80133.589091
1462.838515,10807.006753,-2072.576638,-79827.150892
1462.841042,9030.512492,-296.082377,-77069.207099
1462.843569,-888.247130,-2812.782580,-79520.712692
1462.846096,-1036.288319,-740.205942,-77222.426198
1462.848623,740.205942,-2220.617826,-80440.027290
1462.851150,3701.029710,-444.123565,-79061.055394
1462.853677,6661.853478,148.041188,-78141.740796
1462.856204,1480.411884,-2812.782580,-79827.150892
1462.858731,2220.617826,-444.123565,-80133.589091
1462.861258,-2664.741391,-2220.617826,-79214.274493
1462.863784,-740.205942,-1480.411884,-78141.740796
1462.866311,0.000000,-1036.288319,-79980.369991
1462.868838,2664.741391,-1480.411884,-78294.959896
1462.871365,10066.800811,-2960.823768,-80133.589091
1462.873892,11843.295072,-2960.823768,-81206.122788
1462.876419,9474.636058,148.041188,-79367.493593
1462.878946,3849.070898,-3256.906145,-78448.178995
1462.881473,148.041188,-740.205942,-78601.398095
1462.884000,-888.247130,-2664.741391,-80133.589091
1462.886527,5181.441594,-444.123565,-79673.931792
1462.889054,5477.523971,-2812.782580,-80133.589091
1462.891580,-5033.400406,1332.370696,-77835.302597
1462.894107,-13619.789333,-2368.659014,-79214.274493
1462.896634,-11251.130318,-1184.329507,-79367.493593
1462.899161,-1036.288319,-1924.535449,-79827.150892
1462.901700,3108.864956,-444.123565,-79061.055394
1462.904239,3701.029710,-1036.288319,-79214.274493
1462.906778,-5181.441594,-1480.411884,-78294.959896
1462.909318,-9326.594869,-2516.700203,-79980.369991
1462.911857,-17320.819043,1036.288319,-81512.560987
1462.914396,4441.235652,1628.453072,-78601.398095
1462.916935,-10807.006753,-3701.029710,-80133.589091
1462.919474,7254.018232,592.164754,-76915.987999
1462.922013,-9770.718434,-2664.741391,-80746.465489
1462.924552,-3849.070898,2812.782580,-76149.892501
1462.927091,-14211.954086,-5921.647536,-82738.313784
1462.929630,-11399.171507,2812.782580,-73085.510509
1462.932169,-11843.295072,-5033.400406,-80593.246390
1462.934709,-4589.276840,-1184.329507,-79673.931792
1462.937248,-1036.288319,-148.041188,-78294.959896
1462.939787,296.082377,-2072.576638,-79214.274493
1462.942326,-4441.235652,148.041188,-77222.426198
1462.944865,-7994.224174,-2516.700203,-80286.808190
1462.947404,2368.659014,592.164754,-78294.959896
1462.949943,9770.718434,-2960.823768,-81052.903688
1462.952482,13175.665768,-296.082377,-77528.864398
1462.955021,5329.482782,-1776.494261,-79367.493593
1462.957560,1628.453072,-1184.329507,-79061.055394
1462.960099,-3108.864956,-1036.288319,-80133.589091
1462.962639,3256.906145,-1776.494261,-79673.931792
1462.965178,11695.253884,-1332.370696,-78448.178995
1462.967717,5329.482782,-1036.288319,-80133.589091
1462.970256,4145.153275,-592.164754,-77375.645298
1462.972795,-1332.370696,-2220.617826,-79980.369991
1462.975334,2220.617826,-1184.329507,-79061.055394
1462.977873,-1332.370696,-1776.494261,-78601.398095
1462.980412,8734.430116,-2516.700203,-78141.740796
1462.982924,10510.924376,0.000000,-78294.959896
1462.985435,12287.418637,-2220.617826,-81359.341888
1462.987947,13767.830521,296.082377,-79827.150892
1462.990459,2960.823768,-3256.906145,-82278.656485
1462.992970,2368.659014,888.247130,-76149.892501
1462.995482,-296.082377,-3849.070898,-81052.903688
1462.997994,4441.235652,-148.041188,-78294.959896
1463.000505,8734.430116,-1628.453072,-79367.493593
1463.003017,-7698.141797,-1776.494261,-81512.560987
1463.005528,-11251.130318,1036.288319,-78141.740796
1463.008040,-13471.748144,-3701.029710,-80133.589091
1463.010552,-5329.482782,148.041188,-78448.178995
1463.013063,1924.535449,-1184.329507,-80286.808190
1463.015575,4441.235652,-740.205942,-78754.617194
1463.018087,-6661.853478,-740.205942,-77988.521696
1463.020598,-18801.230927,-2072.576638,-78754.617194
1463.023110,-10807.006753,-3404.947333,-78907.836294
1463.025621,-1332.370696,-1480.411884,-78754.617194
1463.028133,2516.700203,148.041188,-78448.178995
1463.030645,-4441.235652,-3552.988522,-79673.931792
1463.033156,6217.729913,592.164754,-77682.083497
1463.035668,-6957.935855,-2960.823768,-80440.027290
1463.038180,-8734.430116,296.082377,-76762.768900
1463.040691,-12139.377449,-2960.823768,-79520.712692
1463.043203,-8882.471304,-2368.659014,-77682.083497
1463.045714,-4885.359217,296.082377,-78907.836294
1463.048226,-1332.370696,-2516.700203,-81818.999186
1463.050738,2220.617826,0.000000,-77222.426198
1463.053249,-5625.565159,-3849.070898,-78907.836294
1463.055761,-2516.700203,1480.411884,-77375.645298
1463.058273,3256.906145,-3997.112087,-80746.465489
1463.060784,12287.418637,0.000000,-77835.302597
1463.063296,11547.212695,-1628.453072,-79827.150892
1463.065808,6217.729913,-1628.453072,-78294.959896
1463.068319,-740.205942,-1628.453072,-78907.836294
1463.070831,-1184.329507,-2368.659014,-81206.122788
1463.073342,-1924.535449,-740.205942,-79214.274493
1463.075854,16136.489536,-2812.782580,-79827.150892
1463.078366,10807.006753,740.205942,-79367.493593
1463.080877,-1924.535449,-1628.453072,-82125.437386
1463.083405,-3404.947333,-740.205942,-77988.521696
1463.085932,1480.411884,-1332.370696,-79214.274493
1463.088459,7550.100608,-2220.617826,-76609.549800
1463.090986,6957.935855,-2664.741391,-80593.246390
1463.093513,7698.141797,148.041188,-81972.218286
1463.096041,14952.160028,-1184.329507,-75690.235202
1463.098568,10510.924376,-2812.782580,-81818.999186
1463.101095,3849.070898,-296.082377,-79980.369991
1463.103622,296.082377,-1184.329507,-80899.684589
1463.106150,-2516.700203,-2960.823768,-79673.931792
1463.108677,7550.100608,-888.247130,-77682.083497
1463.111204,6513.812290,-2960.823768,-77069.207099
1463.113731,-5181.441594,444.123565,-79061.055394
1463.116259,-14508.036463,-1924.535449,-77069.207099
1463.118786,-13027.624579,-2368.659014,-77222.426198
1463.121313,-2368.659014,-1036.288319,-79520.712692
1463.123840,2072.576638,-1036.288319,-79367.493593
1463.126368,4441.235652,-1628.453072,-79827.150892
1463.128895,-5477.523971,-888.247130,-77682.083497
1463.131422,-12139.377449,-2812.782580,-78141.740796
1463.133949,-12435.459826,740.205942,-78754.617194
1463.136476,7698.141797,-592.164754,-78448.178995
1463.139004,-7254.018232,-3552.988522,-77682.083497
1463.141531,2960.823768,-296.082377,-76303.111601
1463.144058,-5625.565159,-2368.659014,-80440.027290
1463.146585,-5921.647536,2516.700203,-78141.740796
1463.149113,-13323.706956,-2072.576638,-81206.122788
1463.151640,-12879.583391,-1184.329507,-78907.836294
1463.154167,-10066.800811,-1628.453072,-77988.521696
1463.156694,-2664.741391,-1184.329507,-79827.150892
1463.159222,-148.041188,-740.205942,-79827.150892
1463.161749,-1628.453072,-444.123565,-79827.150892
1463.164276,-6365.771101,-1332.370696,-77682.083497
1463.166803,-4145.153275,-2516.700203,-78754.617194
1463.169331,8586.388927,-1184.329507,-79061.055394
1463.171858,10807.006753,-1036.288319,-80440.027290
1463.174385,12139.377449,-888.247130,-78907.836294
1463.176912,592.164754,-740.205942,-78601.398095
1463.179440,-1036.288319,-1776.494261,-79980.369991
1463.181967,-2664.741391,-888.247130,-80593.246390
1463.184507,4737.318029,-2664.741391,-79673.931792
1463.187047,17468.860231,-1924.535449,-76915.987999
1463.189588,9178.553681,-1184.329507,-77682.083497
1463.192128,-4441.235652,-888.247130,-79673.931792
1463.194668,1480.411884,-888.247130,-81512.560987
1463.197209,296.082377,-4293.194464,-78294.959896
1463.199749,8142.265362,888.247130,-77988.521696
1463.202289,2516.700203,-2960.823768,-81359.341888
1463.204829,13767.830521,592.164754,-79827.150892
1463.207370,12287.418637,-1924.535449,-79980.369991
1463.209910,9030.512492,-2220.617826,-78448.178995
1463.212450,444.123565,-740.205942,-77528.864398
1463.214991,-1184.329507,-1036.288319,-79367.493593
1463.217531,3404.947333,-2072.576638,-77222.426198
1463.220071,7105.977043,-1776.494261,-78601.398095
1463.222611,-4885.359217,-740.205942,-79673.931792
1463.225152,-11251.130318,296.082377,-79061.055394
1463.227692,-14804.118840,-2812.782580,-78907.836294
1463.230232,-6069.688724,-740.205942,-78907.836294
1463.232773,-148.041188,-1480.411884,-79520.712692
1463.235313,3997.112087,148.041188,-78141.740796
1463.237853,-2960.823768,-1924.535449,-78448.178995
1463.240393,-15248.242405,148.041188,-78754.617194
1463.242934,-13767.830521,-5181.441594,-80746.465489
1463.245474,-3849.070898,1332.370696,-77835.302597
1463.248014,5033.400406,-2220.617826,-78907.836294
1463.250555,-2220.617826,-2960.823768,-78448.178995
1463.253095,1184.329507,0.000000,-78141.740796
1463.255635,-10658.965565,-888.247130,-81052.903688
1463.258176,-13471.748144,-1036.288319,-78448.178995
1463.260716,-14211.954086,-2664.741391,-79673.931792
1463.263256,-7846.182985,-1776.494261,-78448.178995
1463.265796,-2072.576638,-1480.411884,-78601.398095
1463.268337,-1332.370696,-1924.535449,-80133.589091
1463.270877,592.164754,1036.288319,-78448.178995
1463.273417,-7994.224174,-2516.700203,-80746.465489
1463.275958,-2220.617826,-888.247130,-76609.549800
1463.278498,9178.553681,-2812.782580,-80440.027290
1463.281038,12583.501014,-444.123565,-79827.150892
1463.283578,9178.553681,-1036.288319,-80286.808190
1463.286129,5625.565159,-1924.535449,-79061.055394
1463.288679,-1480.411884,-296.082377,-77375.645298
1463.291229,-2368.659014,-2072.576638,-78907.836294
1463.293780,6513.812290,296.082377,-78907.836294
1463.296330,18801.230927,-740.205942,-78601.398095
1463.298880,9326.594869,-1628.453072,-76303.111601
1463.301431,1628.453072,-1628.453072,-82278.656485
1463.303981,-6513.812290,148.041188,-80593.246390
1463.306531,-3997.112087,-444.123565,-80133.589091
1463.309081,5477.523971,-2368.659014,-75843.454302
1463.311632,12287.418637,-3108.864956,-75690.235202
1463.314182,9622.677246,-592.164754,-77835.302597
1463.316732,14211.954086,740.205942,-77069.207099
1463.319283,3997.112087,-5181.441594,-78448.178995
1463.321833,592.164754,-592.164754,-77375.645298
1463.324383,-5181.441594,-2220.617826,-81206.122788
1463.326934,5181.441594,1036.288319,-80440.027290
1463.329484,4293.194464,-2812.782580,-81206.122788
1463.332034,-2220.617826,444.123565,-77835.302597
1463.334584,-13175.665768,-1480.411884,-76915.987999
1463.337135,-11695.253884,-2072.576638,-79367.493593
1463.339685,-5329.482782,-1480.411884,-79061.055394
1463.342235,2220.617826,-296.082377,-78294.959896
1463.344786,2664.741391,-2368.659014,-79061.055394
1463.347336,-2072.576638,0.000000,-78448.178995
1463.349886,-19985.560434,-2220.617826,-79673.931792
1463.352437,-16136.489536,148.041188,-79367.493593
1463.354987,4293.194464,-888.247130,-79214.274493
1463.357537,-444.123565,-1184.329507,-79980.369991
1463.360087,740.205942,-1628.453072,-76915.987999
1463.362638,-1628.453072,-1332.370696,-79214.274493
1463.365188,-15544.324782,148.041188,-79061.055394
1463.367738,-14211.954086,-3256.906145,-80899.684589
1463.370289,-13471.748144,-1036.288319,-77988.521696
1463.372839,-6957.935855,-1924.535449,-78141.740796
1463.375389,296.082377,-888.247130,-78907.836294
1463.377940,3552.988522,-1628.453072,-79673.931792
1463.380490,-6217.729913,1480.411884,-78754.617194
1463.383040,-8290.306550,-3552.988522,-78907.836294
1463.385590,1184.329507,-1332.370696,-78448.178995
1463.388149,11991.336260,-1480.411884,-79673.931792
1463.390708,13027.624579,-1036.288319,-79367.493593
1463.393266,7994.224174,-1036.288319,-78448.178995
1463.395825,2812.782580,-1924.535449,-79061.055394
1463.398383,-3701.029710,-1036.288319,-79367.493593
1463.400942,-296.082377,-1628.453072,-80593.246390
1463.403500,4885.359217,-444.123565,-78601.398095
1463.406059,12287.418637,-3701.029710,-78448.178995
1463.408617,8142.265362,-888.247130,-76149.892501
1463.411176,-4145.153275,-1776.494261,-78601.398095
1463.413735,-1480.411884,-1036.288319,-80440.027290
1463.416293,1332.370696,-2220.617826,-77835.302597
1463.418852,6365.771101,-3997.112087,-80286.808190
1463.421410,15396.283594,888.247130,-78141.740796
1463.423969,13767.830521,-2664.741391,-79673.931792
1463.426527,5477.523971,-592.164754,-78448.178995
1463.429086,-2812.782580,-2516.700203,-78754.617194
1463.431645,-2812.782580,-444.123565,-78294.959896
1463.434203,3256.906145,-2664.741391,-78754.617194
1463.436762,7254.018232,-1480.411884,-80899.684589
1463.439320,-7994.224174,-444.123565,-80286.808190
1463.441879,-12435.459826,-592.164754,-79214.274493
1463.444437,-14359.995275,-1480.411884,-77835.302597
1463.446996,-6069.688724,-2516.700203,-80133.589091
1463.449554,-296.082377,-592.164754,-79673.931792
1463.452113,7698.141797,-1184.329507,-79827.150892
1463.454672,-444.123565,-1036.288319,-78294.959896
1463.457230,-4589.276840,-2368.659014,-78448.178995
1463.459789,-16580.613101,-1628.453072,-79520.712692
1463.462347,1628.453072,-888.247130,-77988.521696
1463.464906,1036.288319,-2516.700203,-79367.493593
1463.467464,-740.205942,-296.082377,-77375.645298
1463.470023,-2368.659014,-1924.535449,-80286.808190
1463.472582,-5773.606348,296.082377,-79061.055394
1463.475140,-17172.777854,-1184.329507,-79367.493593
1463.477699,-13619.789333,-2664.741391,-78601.398095
1463.480257,-2368.659014,296.082377,-76762.768900
1463.482816,148.041188,-2812.782580,-79827.150892
1463.485374,3404.947333,296.082377,-80133.589091
1463.487933,-8882.471304,-1628.453072,-80746.465489
1463.490492,-7402.059420,-444.123565,-77528.864398
1463.493057,1184.329507,-5329.482782,-78907.836294
1463.495622,15544.324782,-888.247130,-78754.617194
1463.498187,13027.624579,-2664.741391,-80286.808190
1463.500752,11103.089130,-1332.370696,-79061.055394
1463.503317,740.205942,-2072.576638,-77835.302597
1463.505882,-3849.070898,-3108.864956,-80286.808190
1463.508447,1628.453072,1924.535449,-79061.055394
1463.511012,1628.453072,-1776.494261,-81359.341888
1463.513577,9326.594869,-148.041188,-77375.645298
1463.516142,4885.359217,-3997.112087,-78754.617194
1463.518707,592.164754,-2220.617826,-77835.302597
1463.521272,-3701.029710,444.123565,-79980.369991
1463.523837,4885.359217,-3701.029710,-77682.083497
1463.526402,13175.665768,-1480.411884,-74924.139704
1463.528967,13767.830521,-2072.576638,-78754.617194
1463.531532,17468.860231,148.041188,-81665.780087
1463.534097,2368.659014,-1036.288319,-82738.313784
1463.536661,444.123565,-1036.288319,-79367.493593
1463.539226,-5181.441594,-2960.823768,-77375.645298
1463.541791,9326.594869,-740.205942,-80746.465489
1463.544356,4589.276840,-2220.617826,-81206.122788
1463.546921,-4737.318029,444.123565,-79061.055394
1463.549486,-13915.871710,-1332.370696,-77375.645298
1463.552051,-13323.706956,-2072.576638,-77682.083497
1463.554616,-6069.688724,-1924.535449,-79214.274493
1463.557181,-1924.535449,-1184.329507,-80746.465489
1463.559746,5477.523971,1036.288319,-77528.864398
1463.562311,-6661.853478,-1036.288319,-79061.055394
1463.564876,-15692.365970,-2664.741391,-79827.150892
1463.567441,-10066.800811,-592.164754,-79827.150892
1463.570006,1332.370696,-1036.288319,-77222.426198
1463.572571,5773.606348,-740.205942,-79520.712692
1463.575136,-10066.800811,-2812.782580,-79367.493593
1463.577701,5625.565159,-592.164754,-78907.836294
1463.580266,-12583.501014,-592.164754,-83197.971083
1463.582831,-13323.706956,296.082377,-76762.768900
1463.585396,-12731.542202,-5033.400406,-79673.931792
1463.587960,-444.123565,148.041188,-75996.673402
1463.590525,-1184.329507,-1332.370696,-81512.560987
1463.593095,3256.906145,148.041188,-79827.150892
1463.595665,-11103.089130,-3256.906145,-81052.903688
1463.598234,-2516.700203,740.205942,-77375.645298
1463.600804,4589.276840,-3849.070898,-79520.712692
1463.603373,14804.118840,-1480.411884,-80899.684589
1463.605943,10807.006753,-1184.329507,-79827.150892
1463.608513,3997.112087,444.123565,-79061.055394
1463.611082,-740.205942,-2072.576638,-77528.864398
1463.613652,-3701.029710,-1480.411884,-79673.931792
1463.616222,1480.411884,-592.164754,-79520.712692
1463.618791,14508.036463,296.082377,-79520.712692
1463.621361,8734.430116,-1480.411884,-77069.207099
1463.623930,-2960.823768,-1184.329507,-77682.083497
1463.626500,592.164754,-2072.576638,-80440.027290
1463.629070,-1036.288319,888.247130,-80133.589091
1463.631639,5625.565159,-2664.741391,-81052.903688
1463.634209,9622.677246,-2220.617826,-78601.398095
1463.636778,18357.107362,-888.247130,-77835.302597
1463.639348,9326.594869,-1332.370696,-78448.178995
1463.641918,1480.411884,-2072.576638,-78601.398095
1463.644487,-5773.606348,-1332.370696,-77835.302597
1463.647057,4589.276840,-2516.700203,-77069.207099
1463.649627,6365.771101,-1480.411884,-79061.055394
1463.652196,296.082377,-888.247130,-80440.027290
1463.654766,-12583.501014,148.041188,-79827.150892
1463.657335,-13619.789333,-1184.329507,-79673.931792
1463.659905,-9622.677246,-1628.453072,-79061.055394
1463.662475,296.082377,-1332.370696,-79827.150892
1463.665044,2072.576638,-1036.288319,-79980.369991
1463.667614,0.000000,444.123565,-77682.083497
1463.670183,-16876.695478,-2368.659014,-78907.836294
1463.672753,-12435.459826,-148.041188,-77069.207099
1463.675323,-2664.741391,-2368.659014,-80286.808190
1463.677892,2516.700203,444.123565,-79061.055394
1463.680462,-1480.411884,-1184.329507,-80746.465489
1463.683032,-9622.677246,-1184.329507,-77682.083497
1463.685601,-13471.748144,-1036.288319,-80899.684589
1463.688171,-16580.613101,-296.082377,-80593.246390
1463.690740,-13767.830521,-2516.700203,-77988.521696
1463.693310,-2960.823768,-1924.535449,-77682.083497
1463.695884,444.123565,-1036.288319,-79061.055394
1463.698457,3256.906145,-148.041188,-78448.178995
1463.701031,-9030.512492,-592.164754,-80746.465489
1463.703604,-4145.153275,-4737.318029,-79061.055394
1463.706178,7846.182985,1332.370696,-77988.521696
1463.708751,13323.706956,-4441.235652,-80746.465489
1463.711325,12287.418637,0.000000,-79520.712692
1463.713898,8586.388927,-2220.617826,-79214.274493
1463.716472,-1184.329507,-1332.370696,-77682.083497
1463.719045,-3552.988522,-2516.700203,-79214.274493
1463.721619,1036.288319,-296.082377,-79367.493593
1463.724192,7846.182985,740.205942,-78294.959896
1463.726766,9918.759623,148.041188,-77682.083497
1463.729339,-3108.864956,-4293.194464,-80593.246390
1463.731913,592.164754,1184.329507,-77682.083497
1463.734486,444.123565,-2368.659014,-80133.589091
1463.737060,8142.265362,148.041188,-77682.083497
1463.739633,12435.459826,-2812.782580,-79520.712692
1463.742207,16580.613101,-1628.453072,-78294.959896
1463.744780,7550.100608,0.000000,-78294.959896
1463.747354,-3256.906145,-1184.329507,-80440.027290
1463.749927,-3997.112087,-1036.288319,-80286.808190
1463.752501,1332.370696,-1628.453072,-80286.808190
1463.755074,9918.759623,-148.041188,-77375.645298
1463.757648,-5033.400406,-2812.782580,-80133.589091
1463.760221,-8734.430116,1332.370696,-77988.521696
1463.762795,-17912.983796,-2072.576638,-79520.712692
1463.765368,-4589.276840,148.041188,-77682.083497
1463.767942,-2220.617826,-2960.823768,-79827.150892
1463.770515,4145.153275,0.000000,-77988.521696
1463.773089,-3552.988522,-2220.617826,-79061.055394
1463.775663,-10362.883188,-1332.370696,-77835.302597
1463.778236,-14063.912898,-1184.329507,-77528.864398
1463.780810,-4293.194464,-1480.411884,-78448.178995
1463.783383,2220.617826,0.000000,-77375.645298
1463.785957,-9770.718434,-2368.659014,-77528.864398
1463.788530,-6217.729913,-444.123565,-76303.111601
1463.791104,-12139.377449,-444.123565,-78754.617194
1463.793677,-13767.830521,-888.247130,-79214.274493
1463.796251,-14211.954086,-2960.823768,-81206.122788
1463.798827,-1480.411884,-740.205942,-78754.617194
1463.801404,296.082377,-888.247130,-80286.808190
1463.803981,-2368.659014,-1036.288319,-81665.780087
1463.806558,-7698.141797,444.123565,-80746.465489
1463.809134,-148.041188,-3108.864956,-80593.246390
1463.811711,7402.059420,-888.247130,-77835.302597
1463.814288,15840.407159,-2812.782580,-78601.398095
1463.816865,9178.553681,-1628.453072,-77835.302597
1463.819441,5773.606348,-1184.329507,-79214.274493
1463.822018,-1924.535449,296.082377,-79827.150892
1463.824595,-3108.864956,-3552.988522,-80286.808190
1463.827172,-740.205942,-444.123565,-79061.055394
1463.829748,14508.036463,-148.041188,-79214.274493
1463.832325,2072.576638,-1332.370696,-77988.521696
1463.834902,-8882.471304,-1480.411884,-77375.645298
1463.837479,7550.100608,-2516.700203,-78907.836294
1463.840055,-1924.535449,296.082377,-77682.083497
1463.842632,10955.047942,-1924.535449,-79673.931792
1463.845209,15988.448347,-3404.947333,-78141.740796
1463.847786,11991.336260,-592.164754,-77988.521696
1463.850362,-444.123565,-592.164754,-81206.122788
1463.852939,-3256.906145,-740.205942,-80440.027290
1463.855516,-2516.700203,-3701.029710,-80440.027290
1463.858093,7994.224174,592.164754,-78141.740796
1463.860669,-888.247130,-2516.700203,-78141.740796
1463.863246,-9770.718434,1332.370696,-76456.330700
1463.865823,-12139.377449,-1924.535449,-78601.398095
1463.868400,-10955.047942,-1332.370696,-78907.836294
1463.870977,-296.082377,-1332.370696,-77528.864398
1463.873553,444.123565,-740.205942,-79061.055394
1463.876130,4589.276840,-1480.411884,-78907.836294
1463.878707,-12879.583391,296.082377,-80593.246390
1463.881284,-15544.324782,-2664.741391,-79673.931792
1463.883860,-740.205942,-1332.370696,-78907.836294
1463.886437,-3849.070898,-1332.370696,-81512.560987
1463.889014,5033.400406,0.000000,-77375.645298
1463.891591,-9770.718434,-2812.782580,-79520.712692
1463.894167,-11547.212695,-740.205942,-78448.178995
1463.896744,-17172.777854,-888.247130,-78754.617194
1463.899321,-14508.036463,-2072.576638,-77988.521696
1463.901899,-4885.359217,-1776.494261,-78448.178995
1463.904477,3404.947333,-148.041188,-79827.150892
1463.907056,-6217.729913,-444.123565,-77988.521696
1463.909634,-5477.523971,-592.164754,-79061.055394
1463.912212,-2072.576638,-2368.659014,-80593.246390
1463.914790,10510.924376,-148.041188,-79214.274493
1463.917368,12435.459826,-2072.576638,-81206.122788
1463.919947,11103.089130,-888.247130,-78141.740796
1463.922525,4441.235652,-1480.411884,-78294.959896
1463.925103,148.041188,-2072.576638,-77988.521696
1463.927681,-3256.906145,-1628.453072,-79214.274493
1463.930260,11695.253884,-1924.535449,-78294.959896
1463.932838,9178.553681,0.000000,-78448.178995
1463.935416,296.082377,-3256.906145,-78601.398095
1463.937994,4885.359217,0.000000,-79980.369991
1463.940573,-5921.647536,-1480.411884,-80593.246390
1463.943151,9474.636058,-592.164754,-79367.493593
1463.945729,3701.029710,-2664.741391,-78141.740796
1463.948307,18505.148550,-2220.617826,-76303.111601
1463.950886,8586.388927,-1184.329507,-80593.246390
1463.953464,4885.359217,-1036.288319,-77375.645298
1463.956042,-3108.864956,-1332.370696,-79827.150892
1463.958620,-1332.370696,-2960.823768,-79061.055394
1463.961199,9030.512492,-1628.453072,-80133.589091
1463.963777,-1036.288319,-740.205942,-79214.274493
1463.966355,-9326.594869,740.205942,-78754.617194
1463.968933,-14359.995275,-2664.741391,-79520.712692
1463.971512,-8586.388927,-888.247130,-78907.836294
1463.974090,-2960.823768,-2072.576638,-80286.808190
1463.976668,1776.494261,-592.164754,-77835.302597
1463.979246,444.123565,-2072.576638,-78294.959896
1463.981825,-12879.583391,-444.123565,-77682.083497
1463.984403,-13619.789333,-740.205942,-79367.493593
1463.986981,-5921.647536,-592.164754,-80286.808190
1463.989559,-444.123565,-3552.988522,-79061.055394
1463.992138,1924.535449,-1480.411884,-76456.330700
1463.994716,-6957.935855,-2368.659014,-78141.740796
1463.997294,-8882.471304,1184.329507,-78294.959896
1463.999872,-17172.777854,-1184.329507,-81972.218286
1464.002450,-11399.171507,-1036.288319,-79980.369991
1464.005030,-5921.647536,-444.123565,-79061.055394
1464.007610,4885.359217,-740.205942,-79980.369991
1464.010189,-5181.441594,-888.247130,-80593.246390
1464.012769,-4293.194464,-296.082377,-79520.712692
1464.015348,2664.741391,-3404.947333,-79520.712692
1464.017928,11251.130318,-1036.288319,-78294.959896
1464.020507,10955.047942,-2220.617826,-79980.369991
1464.023087,8586.388927,-296.082377,-79214.274493
1464.025666,6217.729913,-1332.370696,-78601.398095
1464.028246,0.000000,-888.247130,-80133.589091
1464.030825,-3997.112087,-740.205942,-78907.836294
1464.033405,10510.924376,-3108.864956,-78907.836294
1464.035984,6217.729913,-2220.617826,-76915.987999
1464.038564,6661.853478,-2072.576638,-77835.302597
1464.041143,-2664.741391,-1776.494261,-79673.931792
1464.043723,8290.306550,-888.247130,-80133.589091
1464.046302,2960.823768,-888.247130,-81206.122788
1464.048882,18357.107362,-3256.906145,-78141.740796
1464.051461,14211.954086,-2812.782580,-79214.274493
1464.054041,13767.830521,444.123565,-80286.808190
1464.056620,-592.164754,-1332.370696,-81359.341888
1464.059200,-2368.659014,592.164754,-79980.369991
1464.061779,148.041188,-3701.029710,-80593.246390
1464.064359,8142.265362,148.041188,-77222.426198
1464.066938,-7254.018232,-2072.576638,-79061.055394
1464.069518,-12139.377449,-444.123565,-78141.740796
1464.072097,-13175.665768,-1924.535449,-77682.083497
1464.074677,-4441.235652,-740.205942,-78141.740796
1464.077256,-3108.864956,-1628.453072,-79214.274493
1464.079836,3849.070898,296.082377,-78907.836294
1464.082415,-1924.535449,-2220.617826,-79367.493593
1464.084995,-8882.471304,2220.617826,-79061.055394
1464.087574,-12731.542202,-1480.411884,-81972.218286
1464.090154,-1776.494261,-2516.700203,-79520.712692
1464.092733,4589.276840,0.000000,-78141.740796
1464.095313,-4737.318029,-888.247130,-80899.684589
1464.097892,-10066.800811,-148.041188,-79061.055394
1464.100472,-14211.954086,-1036.288319,-79827.150892
1464.103051,-17024.736666,-2516.700203,-76149.892501
1464.105631,-8882.471304,-2664.741391,-77069.207099
1464.108211,-1776.494261,-296.082377,-79367.493593
1464.110791,4293.194464,148.041188,-76609.549800
1464.113372,-6957.935855,-1776.494261,-79061.055394
1464.115952,-1924.535449,-592.164754,-78294.959896
1464.118532,3404.947333,-2812.782580,-81665.780087
1464.121113,12435.459826,-592.164754,-79827.150892
1464.123693,9030.512492,-2960.823768,-79214.274493
1464.126273,8438.347739,148.041188,-77069.207099
1464.128854,1480.411884,-2812.782580,-79367.493593
1464.131434,-296.082377,-888.247130,-78448.178995
1464.134014,-592.164754,-2664.741391,-78601.398095
1464.136594,15248.242405,-296.082377,-77069.207099
1464.139175,1036.288319,-2220.617826,-77988.521696
1464.141755,-296.082377,-1332.370696,-80593.246390
1464.144335,4589.276840,-888.247130,-79980.369991
1464.146916,3256.906145,-888.247130,-81052.903688
1464.149496,9178.553681,-148.041188,-78754.617194
1464.152076,17912.983796,-2220.617826,-79367.493593
1464.154657,12879.583391,-296.082377,-80133.589091
1464.157237,2812.782580,-888.247130,-80899.684589
1464.159817,-2664.741391,-1480.411884,-79673.931792
1464.162397,-740.205942,-3552.988522,-77835.302597
1464.164978,5625.565159,-1184.329507,-77528.864398
1464.167558,-4589.276840,-1480.411884,-79214.274493
1464.170138,-7994.224174,592.164754,-77682.083497
1464.172719,-10955.047942,-1184.329507,-77988.521696
1464.175299,-8290.306550,-740.205942,-78907.836294
1464.177879,-1480.411884,-1036.288319,-79520.712692
1464.180460,-1184.329507,-1184.329507,-80133.589091
1464.183040,-2960.823768,-296.082377,-77835.302597
1464.185620,-6809.894666,-4145.153275,-78141.740796
1464.188200,-14063.912898,740.205942,-77069.207099
1464.190782,2368.659014,-740.205942,-79520.712692
1464.193363,-2368.659014,-2220.617826,-79520.712692
1464.195944,592.164754,148.041188,-75690.235202
1464.198525,-8290.306550,-2812.782580,-80286.808190
1464.201106,-13027.624579,-148.041188,-80746.465489
1464.203688,-17172.777854,-1480.411884,-81206.122788
1464.206269,-8438.347739,-740.205942,-77528.864398
1464.208850,-1924.535449,-2516.700203,-78141.740796
1464.211431,5181.441594,-1480.411884,-79980.369991
1464.214013,-7698.141797,592.164754,-79061.055394
1464.216594,-740.205942,-2368.659014,-77682.083497
1464.219175,8882.471304,-1628.453072,-77835.302597
1464.221756,10510.924376,-3404.947333,-80133.589091
1464.224337,9474.636058,444.123565,-78907.836294
1464.226919,4145.153275,-1036.288319,-81512.560987
1464.229500,4441.235652,-1332.370696,-77528.864398
1464.232081,-2072.576638,-444.123565,-80286.808190
1464.234662,8586.388927,-2664.741391,-79827.150892
1464.237243,8586.388927,-296.082377,-77835.302597
1464.239825,1924.535449,-2812.782580,-78294.959896
1464.242406,1480.411884,148.041188,-77988.521696
1464.244987,-4589.276840,0.000000,-80286.808190
1464.247568,5773.606348,-2220.617826,-80286.808190
1464.250149,8142.265362,-1184.329507,-77988.521696
1464.252731,16432.571912,-740.205942,-78141.740796
1464.255312,9326.594869,-1924.535449,-79827.150892
1464.257893,-1036.288319,-592.164754,-79520.712692
1464.260474,-4293.194464,-1036.288319,-79673.931792
1464.263055,5033.400406,-2960.823768,-78448.178995
1464.265637,1628.453072,-444.123565,-77835.302597
1464.268218,-6957.935855,-2220.617826,-80133.589091
1464.270799,-13175.665768,1036.288319,-77835.302597
1464.273380,-12583.501014,-4441.235652,-80133.589091
1464.275962,-3256.906145,-148.041188,-78448.178995
1464.278543,-1332.370696,-2072.576638,-79827.150892
1464.281124,-592.164754,-148.041188,-77222.426198
1464.283705,592.164754,-2220.617826,-78141.740796
1464.286286,-9918.759623,-1184.329507,-77988.521696
1464.288868,-10066.800811,-1480.411884,-80286.808190
1464.291449,4589.276840,-1036.288319,-80440.027290
1464.294029,4885.359217,-1628.453072,-78907.836294
1464.296610,-6661.853478,-1628.453072,-76915.987999
1464.299190,-8586.388927,-740.205942,-78754.617194
1464.301771,-14359.995275,-1332.370696,-81665.780087
1464.304351,-12435.459826,-2220.617826,-79520.712692
1464.306932,-5033.400406,-444.123565,-78294.959896
1464.309512,3552.988522,-1332.370696,-78294.959896
1464.312093,-3404.947333,-1036.288319,-78294.959896
1464.314673,-3997.112087,-1776.494261,-77528.864398
1464.317253,6957.935855,-1480.411884,-79367.493593
1464.319834,10214.842000,-2516.700203,-79061.055394
1464.322414,11695.253884,-740.205942,-77375.645298
1464.324995,5329.482782,-2368.659014,-79061.055394
1464.327575,3404.947333,296.082377,-78754.617194
1464.330156,2072.576638,-2072.576638,-80440.027290
1464.332736,7402.059420,-888.247130,-80133.589091
1464.335317,4885.359217,-592.164754,-79827.150892
1464.337897,8438.347739,-1184.329507,-77988.521696
1464.340478,-1332.370696,-444.123565,-80593.246390
1464.343058,-1628.453072,0.000000,-81052.903688
1464.345639,-2368.659014,-1776.494261,-79520.712692
1464.348219,10807.006753,-1036.288319,-78294.959896
1464.350800,14063.912898,-1184.329507,-74464.482406
1464.353380,15692.365970,-3849.070898,-78907.836294
1464.355961,6809.894666,1480.411884,-77988.521696
1464.358541,-592.164754,-1184.329507,-76303.111601
1464.361121,-4441.235652,-2072.576638,-79214.274493
1464.363702,6957.935855,-1036.288319,-79061.055394
1464.366282,-7550.100608,-148.041188,-82431.875585
1464.368863,-7402.059420,-888.247130,-79214.274493
1464.371443,-15692.365970,-2220.617826,-78754.617194
1464.374024,-6513.812290,-740.205942,-77988.521696
1464.376604,-4885.359217,-1776.494261,-81359.341888
1464.379185,1480.411884,-444.123565,-78294.959896
1464.381765,-4145.153275,-2072.576638,-77528.864398
1464.384346,-6365.771101,296.082377,-76762.768900
1464.386926,-7402.059420,-2072.576638,-80899.684589
1464.389507,-4145.153275,-148.041188,-81665.780087
1464.392087,4293.194464,-1184.329507,-79061.055394
1464.394668,-4589.276840,-1332.370696,-79520.712692
1464.397247,-10066.800811,-1184.329507,-79673.931792
1464.399827,-14211.954086,740.205942,-80899.684589
1464.402407,-16876.695478,-1924.535449,-81972.218286
1464.404987,-9326.594869,-592.164754,-77682.083497
1464.407567,3256.906145,-1924.535449,-77528.864398
1464.410147,1184.329507,-1184.329507,-77528.864398
1464.412727,-3552.988522,-1332.370696,-79980.369991
1464.415307,3404.947333,-148.041188,-80286.808190
1464.417887,8142.265362,-2960.823768,-78294.959896
1464.420467,12139.377449,-296.082377,-79367.493593
1464.423047,6069.688724,-444.123565,-79673.931792
1464.425626,7105.977043,-1332.370696,-79214.274493
1464.428206,-1036.288319,148.041188,-79367.493593
1464.430786,-444.123565,-1184.329507,-79673.931792
1464.433366,7105.977043,-1628.453072,-78141.740796
1464.435946,12731.542202,-296.082377,-77988.521696
1464.438526,-2812.782580,-4441.235652,-78907.836294
1464.441106,3849.070898,296.082377,-77069.207099
1464.443686,-3997.112087,-3701.029710,-81359.341888
1464.446266,10066.800811,-296.082377,-77988.521696
1464.448846,12287.418637,-1480.411884,-78294.959896
1464.451426,15396.283594,-2516.700203,-79673.931792
1464.454006,7698.141797,-148.041188,-78141.740796
1464.456585,2072.576638,-1924.535449,-78907.836294
1464.459165,-1628.453072,-296.082377,-79367.493593
1464.461745,4885.359217,-3997.112087,-78907.836294
1464.464325,-6217.729913,1776.494261,-79061.055394
1464.466905,-9326.594869,-2072.576638,-78907.836294
1464.469485,-12287.418637,-1776.494261,-77988.521696
1464.472065,-7698.141797,-2072.576638,-79673.931792
1464.474645,-2960.823768,-148.041188,-79827.150892
1464.477225,-1628.453072,-1628.453072,-79827.150892
1464.479805,4441.235652,-2072.576638,-77988.521696
1464.482385,-12583.501014,-1036.288319,-79827.150892
1464.484964,-14063.912898,0.000000,-81206.122788
1464.487544,3997.112087,-888.247130,-79980.369991
1464.490124,-4589.276840,-592.164754,-78907.836294
1464.492704,-1332.370696,-2072.576638,-76303.111601
1464.495284,-5181.441594,-1924.535449,-78294.959896
1464.497864,-14508.036463,-148.041188,-80286.808190
1464.500440,-14359.995275,-1036.288319,-77222.426198
1464.503020,-7698.141797,-3108.864956,-79980.369991
1464.505599,1036.288319,-1776.494261,-78907.836294
1464.508178,-1776.494261,-592.164754,-80286.808190
1464.510757,-2220.617826,-1036.288319,-79980.369991
1464.513336,5033.400406,-1480.411884,-77682.083497
1464.515915,8438.347739,-1628.453072,-79367.493593
1464.518494,12139.377449,-1480.411884,-79214.274493
1464.521073,3701.029710,-1776.494261,-77988.521696
1464.523652,7550.100608,-444.123565,-78141.740796
1464.526231,-1184.329507,-2664.741391,-79673.931792
1464.528810,-2368.659014,0.000000,-79214.274493
1464.531389,5329.482782,-1628.453072,-80440.027290
1464.533968,11399.171507,-740.205942,-76456.330700
1464.536547,-1480.411884,-3849.070898,-79214.274493
1464.539126,1776.494261,-2072.576638,-79061.055394
1464.541706,5033.400406,-148.041188,-78907.836294
1464.544285,10510.924376,-3552.988522,-80440.027290
1464.546864,15248.242405,-1036.288319,-78601.398095
1464.549443,13323.706956,-2516.700203,-79520.712692
1464.552022,4145.153275,888.247130,-79214.274493
1464.554601,-888.247130,-2220.617826,-78754.617194
1464.557180,0.000000,-1480.411884,-78141.740796
1464.559759,5477.523971,-2664.741391,-78754.617194
1464.562338,-8290.306550,888.247130,-80286.808190
1464.564917,-11399.171507,-2664.741391,-78141.740796
1464.567496,-10066.800811,-1184.329507,-78294.959896
1464.570075,-5625.565159,-1776.494261,-78601.398095
1464.572654,-1924.535449,-740.205942,-79980.369991
1464.575233,1332.370696,-1628.453072,-79367.493593
1464.577812,2960.823768,-1480.411884,-77375.645298
1464.580392,-7105.977043,-3108.864956,-79673.931792
1464.582971,-8142.265362,-740.205942,-79061.055394
1464.585550,4441.235652,-2220.617826,-79673.931792
1464.588129,-6661.853478,-1332.370696,-79214.274493
1464.590708,-3404.947333,-1480.411884,-76915.987999
1464.593287,-10362.883188,-1332.370696,-78294.959896
1464.595866,-14063.912898,-1628.453072,-80286.808190
1464.598445,-12435.459826,-2368.659014,-79520.712692
1464.601024,-3701.029710,-148.041188,-77835.302597
1464.603603,2220.617826,-1184.329507,-79367.493593
1464.606181,-1628.453072,-1036.288319,-79367.493593
1464.608760,-1036.288319,-1480.411884,-79061.055394
1464.611339,7254.018232,-1628.453072,-79520.712692
1464.613917,9326.594869,-1776.494261,-79214.274493
1464.616496,9326.594869,-740.205942,-79061.055394
1464.619074,6809.894666,-1332.370696,-78907.836294
1464.621653,1776.494261,-1628.453072,-78754.617194
1464.624232,1332.370696,-296.082377,-78294.959896
1464.626810,6957.935855,-3701.029710,-79367.493593
1464.629389,11251.130318,-296.082377,-78907.836294
1464.631967,8882.471304,-1776.494261,-79980.369991
1464.634546,-6661.853478,-1628.453072,-80440.027290
1464.637125,2664.741391,-1184.329507,-80286.808190
1464.639703,444.123565,-3108.864956,-79520.712692
1464.642282,16136.489536,-444.123565,-74311.263306
1464.644860,14804.118840,-2812.782580,-80286.808190
1464.647439,7846.182985,148.041188,-77069.207099
1464.650018,3701.029710,-2960.823768,-77069.207099
1464.652596,-4145.153275,-1776.494261,-78448.178995
1464.655175,4885.359217,-1776.494261,-79827.150892
1464.657754,-6217.729913,-444.123565,-81818.999186
1464.660332,-10066.800811,148.041188,-80133.589091
1464.662911,-11399.171507,-1184.329507,-78907.836294
1464.665489,-6069.688724,-444.123565,-79367.493593
1464.668068,-3552.988522,-1332.370696,-80593.246390
1464.670647,444.123565,-888.247130,-79214.274493
1464.673225,-4737.318029,-888.247130,-77375.645298
1464.675804,-12435.459826,-1036.288319,-78754.617194
1464.678382,-11103.089130,148.041188,-78754.617194
1464.680961,3404.947333,-1480.411884,-77835.302597
1464.683540,-6513.812290,-2220.617826,-78754.617194
1464.686118,-2072.576638,-1628.453072,-78448.178995
1464.688697,-15840.407159,-2664.741391,-77682.083497
1464.691276,-14063.912898,1332.370696,-77375.645298
1464.693854,-15100.201217,-3997.112087,-80133.589091
1464.696433,-5921.647536,1036.288319,-78601.398095
1464.699011,4589.276840,-888.247130,-80286.808190
1464.701590,-3701.029710,0.000000,-78754.617194
1464.704169,2664.741391,-1776.494261,-78907.836294
1464.706746,6809.894666,-2664.741391,-79980.369991
1464.709323,10955.047942,-1332.370696,-80899.684589
1464.711900,5773.606348,-1036.288319,-79061.055394
1464.714478,7402.059420,-2664.741391,-79367.493593
1464.717055,3404.947333,-888.247130,-77835.302597
1464.719632,5773.606348,-1184.329507,-78907.836294
1464.722209,-1924.535449,-444.123565,-80286.808190
1464.724787,10955.047942,-740.205942,-80440.027290
1464.727364,-4293.194464,-2368.659014,-80286.808190
1464.729941,-2960.823768,-296.082377,-78601.398095
1464.732518,296.082377,-3256.906145,-80440.027290
1464.735096,13619.789333,1628.453072,-77835.302597
1464.737673,11695.253884,-4737.318029,-78294.959896
1464.740250,17172.777854,296.082377,-78907.836294
1464.742827,4589.276840,-2516.700203,-79980.369991
1464.745405,3701.029710,1184.329507,-79980.369991
1464.747982,-740.205942,-3108.864956,-79367.493593
1464.750559,4145.153275,-592.164754,-78601.398095
1464.753137,-8438.347739,-1332.370696,-81359.341888
1464.755714,-8882.471304,-296.082377,-78601.398095
1464.758291,-13175.665768,-3552.988522,-79367.493593
1464.760868,-4293.194464,-148.041188,-77222.426198
1464.763446,-3404.947333,-2812.782580,-80133.589091
1464.766023,-296.082377,1036.288319,-78294.959896
1464.768600,-8882.471304,-888.247130,-78754.617194
1464.771177,-8142.265362,-2960.823768,-77375.645298
1464.773755,-7105.977043,-1332.370696,-78754.617194
1464.776332,-5181.441594,-1036.288319,-79673.931792
1464.778909,7402.059420,-1184.329507,-80133.589091
1464.781486,-7105.977043,-1184.329507,-79367.493593
1464.784064,-11547.212695,-1628.453072,-79980.369991
1464.786641,-20133.601622,-1776.494261,-80133.589091
1464.789218,-10510.924376,592.164754,-79827.150892
1464.791795,-5773.606348,-2960.823768,-80899.684589
1464.794373,3997.112087,0.000000,-76762.768900
1464.796950,-3997.112087,-2220.617826,-79827.150892
1464.799527,1480.411884,0.000000,-76915.987999
1464.802104,7994.224174,-3108.864956,-79827.150892
1464.804682,9770.718434,148.041188,-78448.178995
1464.807259,7105.977043,-1776.494261,-78141.740796
1464.809835,3108.864956,-1924.535449,-78907.836294
1464.812411,3849.070898,-1776.494261,-78907.836294
1464.814987,2960.823768,-2960.823768,-79367.493593
1464.817563,3849.070898,1184.329507,-79061.055394
1464.820139,9918.759623,-740.205942,-80593.246390
1464.822715,-2220.617826,-1628.453072,-78907.836294
1464.825291,2516.700203,-2812.782580,-78141.740796
1464.827868,3997.112087,-444.123565,-80899.684589
1464.830444,10658.965565,-1776.494261,-79061.055394
1464.833020,16580.613101,-1480.411884,-79214.274493
1464.835596,12435.459826,-1628.453072,-79367.493593
1464.838172,6809.894666,-740.205942,-78907.836294
1464.840748,-1184.329507,-1480.411884,-79367.493593
1464.843324,296.082377,-2072.576638,-80286.808190
1464.845900,2072.576638,-1332.370696,-77988.521696
1464.848476,-9030.512492,888.247130,-80286.808190
1464.851052,-14211.954086,-2812.782580,-79367.493593
1464.853628,-8586.388927,148.041188,-79980.369991
1464.856204,-2960.823768,-2664.741391,-79673.931792
1464.858781,148.041188,-296.082377,-78754.617194
1464.861357,1628.453072,-2072.576638,-80133.589091
1464.863933,-11547.212695,740.205942,-79061.055394
1464.866509,-7105.977043,-1184.329507,-80133.589091
1464.869085,-5329.482782,1036.288319,-78907.836294
1464.871661,-1924.535449,1036.288319,-80286.808190
1464.874237,148.041188,-1480.411884,-78754.617194
1464.876813,-5625.565159,-2220.617826,-78294.959896
1464.879389,-16136.489536,-1184.329507,-78448.178995
1464.881965,-14804.118840,148.041188,-79214.274493
1464.884541,-11991.336260,-1036.288319,-79367.493593
1464.887117,148.041188,-1332.370696,-78448.178995
1464.889693,-1332.370696,0.000000,-80133.589091
1464.892270,-2072.576638,-592.164754,-79061.055394
1464.894846,7846.182985,-2516.700203,-79827.150892
1464.897422,7698.141797,-1924.535449,-78294.959896
1464.899998,13027.624579,-2220.617826,-79367.493593
1464.902574,2368.659014,-1480.411884,-78754.617194
1464.905150,7254.018232,-1332.370696,-78601.398095
1464.907726,-296.082377,-1776.494261,-79673.931792
1464.910302,8882.471304,-592.164754,-80133.589091
1464.912877,6957.935855,-1924.535449,-79520.712692
1464.915452,7846.182985,-296.082377,-80286.808190
1464.918028,-7254.018232,-3404.947333,-79520.712692
1464.920603,7402.059420,444.123565,-77682.083497
1464.923178,2072.576638,-1480.411884,-78448.178995
1464.925753,15100.201217,-1036.288319,-77835.302597
1464.928328,11399.171507,-3108.864956,-81665.780087
1464.930903,7994.224174,0.000000,-76456.330700
1464.933479,296.082377,-1628.453072,-79520.712692
1464.936054,-1480.411884,-1184.329507,-80593.246390
1464.938629,3997.112087,-2664.741391,-79827.150892
1464.941204,-5625.565159,296.082377,-80286.808190
1464.943779,-11103.089130,-888.247130,-78907.836294
1464.946354,-11991.336260,-1628.453072,-78907.836294
1464.948929,-7698.141797,-2516.700203,-78601.398095
1464.951505,-3108.864956,-296.082377,-77988.521696
1464.954080,2368.659014,-2220.617826,-79520.712692
1464.956655,2960.823768,-296.082377,-77375.645298
1464.959230,-10066.800811,-2072.576638,-80899.684589
1464.961805,-12287.418637,-740.205942,-79673.931792
1464.964380,3997.112087,148.041188,-80746.465489
1464.966956,-8586.388927,-1036.288319,-77988.521696
1464.969531,1332.370696,-2516.700203,-78294.959896
1464.972106,-19097.313304,-4441.235652,-82278.656485
1464.974681,-13471.748144,2516.700203,-77069.207099
1464.977256,-15396.283594,-3404.947333,-79520.712692
1464.979831,0.000000,-1628.453072,-76303.111601
1464.982407,-740.205942,-2220.617826,-79367.493593
1464.984982,-2368.659014,592.164754,-78754.617194
1464.987557,3701.029710,-2664.741391,-81359.341888
1464.990132,9030.512492,-1332.370696,-79520.712692
1464.992707,10362.883188,-2072.576638,-79214.274493
1464.995282,1776.494261,-1924.535449,-80593.246390
1464.997857,7402.059420,296.082377,-77835.302597
1465.000433,2220.617826,-3849.070898,-80746.465489
1465.003008,8586.388927,-888.247130,-76762.768900
1465.005583,7254.018232,-1480.411884,-80746.465489
1465.008158,3404.947333,148.041188,-78448.178995
1465.010733,1924.535449,-740.205942,-77528.864398
1465.013308,-6809.894666,-3404.947333,-81052.903688
1465.015850,6069.688724,1628.453072,-80286.808190
1465.018392,12731.542202,-3256.906145,-79367.493593
1465.020934,19097.313304,-1480.411884,-77528.864398
1465.023476,9474.636058,-2960.823768,-79061.055394
1465.026018,5329.482782,0.000000,-78907.836294
1465.028560,-6513.812290,-1628.453072,-80899.684589
1465.031102,6217.729913,0.000000,-76915.987999
1465.033643,-10510.924376,-2516.700203,-80286.808190
1465.036185,-9918.759623,1036.288319,-78448.178995
1465.038727,-12731.542202,-2516.700203,-79980.369991
1465.041269,-5033.400406,-2368.659014,-78448.178995
1465.043811,-3108.864956,-1036.288319,-78141.740796
1465.046353,-1332.370696,-2220.617826,-80133.589091
1465.048895,-7550.100608,1924.535449,-77682.083497
1465.051437,-12287.418637,-3849.070898,-80746.465489
1465.053978,-7254.018232,-444.123565,-79980.369991
1465.056520,-5477.523971,-148.041188,-79367.493593
1465.059062,8142.265362,-1332.370696,-77988.521696
1465.061604,-5921.647536,-2812.782580,-78294.959896
1465.064146,-11399.171507,-148.041188,-78601.398095
1465.066688,-21614.013506,-1924.535449,-82125.437386
1465.069230,-13175.665768,1924.535449,-78907.836294
1465.071772,-2516.700203,-740.205942,-79827.150892
1465.074313,1776.494261,-1184.329507,-79980.369991
1465.076855,-3256.906145,-888.247130,-78907.836294
1465.079397,9474.636058,-3404.947333,-80133.589091
1465.081939,7550.100608,-1184.329507,-78294.959896
1465.084481,13027.624579,-1332.370696,-79214.274493
