#time,accel_x,accel_y,accel_z
80.379700,-3552.988522,2664.741391,-76456.330700
80.382263,592.164754,444.123565,-77528.864398
80.384826,2072.576638,-6217.729913,-78754.617194
80.387389,-6069.688724,1776.494261,-78294.959896
80.389952,-592.164754,-3404.947333,-78448.178995
80.392515,3404.947333,-4589.276840,-77835.302597
80.395078,-7105.977043,592.164754,-77069.207099
80.397641,3404.947333,-2812.782580,-77528.864398
80.400204,3256.906145,-3108.864956,-78141.740796
80.402767,-5477.523971,-1332.370696,-76915.987999
80.405330,-5921.647536,888.247130,-77682.083497
80.407893,3256.906145,-2812.782580,-76762.768900
80.410456,-3404.947333,-3108.864956,-78141.740796
80.413019,-3552.988522,1924.535449,-75843.454302
80.415582,2220.617826,-4885.359217,-77988.521696
80.418145,-3849.070898,-296.082377,-77988.521696
80.420708,-2368.659014,1776.494261,-77682.083497
80.423271,4885.359217,-4885.359217,-77682.083497
80.425834,2664.741391,-3404.947333,-77222.426198
80.428397,-7402.059420,1776.494261,-77682.083497
80.430960,14063.912898,-6957.935855,-77528.864398
80.433523,592.164754,0.000000,-78141.740796
80.436086,6069.688724,1036.288319,-78601.398095
80.438649,13915.871710,-5033.400406,-76456.330700
80.441212,-3404.947333,-4441.235652,-77682.083497
80.443775,-2516.700203,3849.070898,-77222.426198
80.446338,2960.823768,-7105.977043,-79520.712692
80.448744,1628.453072,-2812.782580,-79061.055394
80.451149,-1776.494261,740.205942,-78294.959896
80.453555,12287.418637,-2664.741391,-78141.740796
80.455960,-3108.864956,-3256.906145,-78601.398095
80.458366,-15840.407159,3404.947333,-76303.111601
80.460771,-4441.235652,-3701.029710,-80746.465489
80.463177,-5921.647536,-2960.823768,-78294.959896
80.465582,-2220.617826,2664.741391,-77069.207099
80.467988,5921.647536,592.164754,-76609.549800
80.470393,3552.988522,-5773.606348,-77375.645298
80.472799,-11399.171507,592.164754,-77528.864398
80.475205,-10362.883188,1036.288319,-78601.398095
80.477610,-7402.059420,-4885.359217,-77988.521696
80.480016,-9326.594869,-296.082377,-76609.549800
80.482421,7402.059420,0.000000,-77988.521696
80.484827,888.247130,-3701.029710,-80286.808190
80.487232,-7698.141797,444.123565,-77988.521696
80.489638,-8290.306550,1332.370696,-79061.055394
80.492043,1776.494261,-1776.494261,-78448.178995
80.494449,-1036.288319,-3849.070898,-77988.521696
80.496854,-7254.018232,3404.947333,-74924.139704
80.499260,9770.718434,-5773.606348,-77375.645298
80.501665,-11399.171507,-1036.288319,-79520.712692
80.504071,-11991.336260,1924.535449,-78448.178995
80.506477,-3256.906145,-6661.853478,-76456.330700
80.508882,-16432.571912,-2368.659014,-80133.589091
80.511288,-4441.235652,2220.617826,-76456.330700
80.513693,8882.471304,-2664.741391,-77988.521696
80.516099,-1184.329507,-5181.441594,-78907.836294
80.518504,-11103.089130,5033.400406,-76915.987999
80.520910,-1628.453072,-4885.359217,-79214.274493
80.523315,-11103.089130,-2072.576638,-76609.549800
80.525721,-6513.812290,3108.864956,-77835.302597
80.528126,9178.553681,-4589.276840,-78294.959896
80.530532,5921.647536,-6069.688724,-78141.740796
80.532938,-16432.571912,2368.659014,-77069.207099
80.535343,740.205942,-444.123565,-78294.959896
80.537749,2960.823768,-5625.565159,-79367.493593
80.540154,3552.988522,1628.453072,-77528.864398
80.542560,11251.130318,296.082377,-77222.426198
80.545058,7402.059420,-5477.523971,-77682.083497
80.547514,-11547.212695,2368.659014,-76915.987999
80.549969,1924.535449,-2072.576638,-79061.055394
80.552425,6365.771101,-6513.812290,-79061.055394
80.554880,4885.359217,-296.082377,-76915.987999
80.557336,8734.430116,888.247130,-77835.302597
80.559791,6365.771101,-5625.565159,-78294.959896
80.562246,-9030.512492,-1332.370696,-78907.836294
80.564702,-5181.441594,-148.041188,-77835.302597
80.567157,3849.070898,-3701.029710,-77682.083497
80.569613,148.041188,-1628.453072,-77682.083497
80.572068,3701.029710,444.123565,-77835.302597
80.574524,9474.636058,-5329.482782,-79980.369991
80.576979,4145.153275,-2072.576638,-76762.768900
80.579435,-11843.295072,888.247130,-75690.235202
80.581890,10214.842000,-148.041188,-76915.987999
80.584345,-3701.029710,-7254.018232,-82431.875585
80.586801,-5181.441594,7105.977043,-77528.864398
80.589256,11991.336260,-5773.606348,-79061.055394
80.591712,-10066.800811,-2664.741391,-78141.740796
80.594167,-2960.823768,1332.370696,-75690.235202
80.596623,7254.018232,1184.329507,-77988.521696
80.599078,16876.695478,-6513.812290,-79980.369991
80.601534,1036.288319,2220.617826,-76915.987999
80.603989,11695.253884,-2072.576638,-78907.836294
80.606444,-2960.823768,-4293.194464,-78294.959896
80.608900,-12731.542202,1332.370696,-76456.330700
80.611355,4441.235652,-1776.494261,-77375.645298
80.613811,12287.418637,-5181.441594,-77835.302597
80.616266,4885.359217,-2516.700203,-78448.178995
80.618722,8438.347739,2664.741391,-77528.864398
80.621177,-2960.823768,-6217.729913,-78754.617194
80.623633,-16136.489536,-444.123565,-75996.673402
80.626088,-1036.288319,-444.123565,-77069.207099
80.628543,16432.571912,-3256.906145,-79214.274493
80.630999,-1776.494261,-1628.453072,-77375.645298
80.633454,-2220.617826,2072.576638,-76762.768900
80.635910,-8586.388927,-7698.141797,-76915.987999
80.638365,-10955.047942,-1332.370696,-77988.521696
80.640821,-7105.977043,3256.906145,-77988.521696
80.643194,12879.583391,-3997.112087,-78141.740796
80.645568,740.205942,-3701.029710,-78141.740796
80.647941,-5773.606348,2368.659014,-77375.645298
80.650314,-6809.894666,-3552.988522,-77835.302597
80.652688,-15396.283594,-1628.453072,-79214.274493
80.655061,-6661.853478,2812.782580,-77835.302597
80.657434,11547.212695,-4145.153275,-78448.178995
80.659808,7105.977043,-7105.977043,-79367.493593
80.662181,-4441.235652,2072.576638,-77069.207099
80.664555,-6513.812290,888.247130,-77222.426198
80.666928,-10066.800811,-5181.441594,-77375.645298
80.669301,-4885.359217,-148.041188,-75996.673402
80.671675,3701.029710,296.082377,-78907.836294
80.674048,2812.782580,-3256.906145,-79520.712692
80.676422,-9474.636058,740.205942,-77988.521696
80.678795,1332.370696,-1036.288319,-78141.740796
80.681168,7846.182985,-4589.276840,-76762.768900
80.683542,-9030.512492,-1332.370696,-79061.055394
80.685915,-5477.523971,296.082377,-76303.111601
80.688289,-296.082377,-4293.194464,-76762.768900
80.690662,-19689.478057,-2220.617826,-78601.398095
80.693035,-8882.471304,1628.453072,-77375.645298
80.695409,0.000000,-6957.935855,-79827.150892
80.697782,-4293.194464,740.205942,-76149.892501
80.700155,592.164754,3552.988522,-77528.864398
80.702529,2516.700203,-3849.070898,-78448.178995
80.704902,-12731.542202,-2516.700203,-77682.083497
80.707276,-15840.407159,2664.741391,-77375.645298
80.709649,740.205942,-4441.235652,-78907.836294
80.712022,-5329.482782,-3849.070898,-78754.617194
80.714396,4293.194464,2664.741391,-77222.426198
80.716769,6217.729913,-6365.771101,-77835.302597
80.719143,-9326.594869,-5033.400406,-77375.645298
80.721516,-6217.729913,-148.041188,-77528.864398
80.723889,11547.212695,1332.370696,-77835.302597
80.726263,6217.729913,-3552.988522,-78907.836294
80.728636,-2368.659014,1776.494261,-76762.768900
80.731010,6217.729913,-2516.700203,-77069.207099
80.733383,-1332.370696,-3404.947333,-77835.302597
80.735756,-8586.388927,2072.576638,-77988.521696
80.738192,14804.118840,-2664.741391,-78141.740796
80.740627,11251.130318,-4145.153275,-77988.521696
80.743063,-3552.988522,-2072.576638,-77835.302597
80.745498,-1332.370696,-148.041188,-77835.302597
80.747934,1332.370696,-2220.617826,-77835.302597
80.750369,-11695.253884,-2664.741391,-75537.016103
80.752804,13471.748144,-740.205942,-76149.892501
80.755240,9622.677246,-3701.029710,-78294.959896
80.757675,1924.535449,1184.329507,-78601.398095
80.760111,-5477.523971,148.041188,-75996.673402
80.762546,2664.741391,-1924.535449,-79520.712692
80.764982,2072.576638,-3404.947333,-79827.150892
80.767417,-5181.441594,1776.494261,-75230.577904
80.769852,9178.553681,-2220.617826,-75996.673402
80.772288,1036.288319,-7402.059420,-80440.027290
80.774723,-10510.924376,6069.688724,-77835.302597
80.777159,9030.512492,-6661.853478,-76303.111601
80.779594,6513.812290,-2516.700203,-76456.330700
80.782030,9030.512492,1036.288319,-79520.712692
80.784465,6513.812290,-1184.329507,-74770.920605
80.786900,888.247130,-5033.400406,-78754.617194
80.789336,-13915.871710,1776.494261,-78141.740796
80.791771,11991.336260,-2368.659014,-78907.836294
80.794207,8734.430116,-2516.700203,-78601.398095
80.796642,4293.194464,1184.329507,-77682.083497
80.799078,12435.459826,-2812.782580,-79061.055394
80.801513,-4737.318029,-3997.112087,-79980.369991
80.803949,-16580.613101,-2664.741391,-77222.426198
80.806384,5477.523971,1924.535449,-77835.302597
80.808819,12731.542202,-6217.729913,-77375.645298
80.811255,-4885.359217,-888.247130,-76762.768900
80.813690,-6365.771101,-148.041188,-75690.235202
80.816126,-7105.977043,-5329.482782,-78294.959896
80.818561,-17024.736666,444.123565,-77375.645298
80.820997,888.247130,1628.453072,-77528.864398
80.823432,9030.512492,-5033.400406,-77835.302597
80.825867,-2960.823768,-3997.112087,-76456.330700
80.828303,-11547.212695,3404.947333,-77222.426198
80.830738,-5329.482782,-5329.482782,-79367.493593
80.833174,-15100.201217,-2664.741391,-79214.274493
80.835557,-1036.288319,1776.494261,-77835.302597
80.837940,9326.594869,-6069.688724,-77835.302597
80.840323,1924.535449,-2516.700203,-77835.302597
80.842706,-4145.153275,6069.688724,-78448.178995
80.845089,-3404.947333,-7994.224174,-78754.617194
80.847471,-8290.306550,-2516.700203,-79061.055394
80.849854,-888.247130,888.247130,-78907.836294
80.852237,1184.329507,-1480.411884,-77069.207099
80.854620,5625.565159,-3701.029710,-77528.864398
80.857003,-10510.924376,-1184.329507,-78448.178995
80.859386,-6365.771101,1332.370696,-76915.987999
80.861769,7550.100608,-5921.647536,-79980.369991
80.864152,-4589.276840,4145.153275,-79214.274493
80.866535,-4145.153275,-3701.029710,-77835.302597
80.868918,-6069.688724,-3997.112087,-77835.302597
80.871301,-13175.665768,-148.041188,-79061.055394
80.873684,-4441.235652,2072.576638,-75996.673402
80.876067,6365.771101,-6217.729913,-78141.740796
80.878450,-6217.729913,296.082377,-76149.892501
80.880833,1480.411884,-444.123565,-76149.892501
80.883216,-9326.594869,-3108.864956,-79367.493593
80.885599,-16136.489536,-740.205942,-78294.959896
80.887982,-592.164754,888.247130,-78601.398095
80.890365,11695.253884,-5329.482782,-79367.493593
80.892748,-5773.606348,-2960.823768,-77222.426198
80.895131,-2960.823768,2368.659014,-76303.111601
80.897514,9622.677246,-7254.018232,-77069.207099
80.899896,148.041188,0.000000,-77682.083497
80.902279,3997.112087,2664.741391,-77835.302597
80.904662,7846.182985,-5181.441594,-78141.740796
80.907045,-4293.194464,-1184.329507,-75843.454302
80.909428,-9474.636058,1628.453072,-76456.330700
80.911811,8438.347739,-1776.494261,-78294.959896
80.914194,6809.894666,-3552.988522,-78448.178995
80.916577,3256.906145,1184.329507,-77988.521696
80.918960,10955.047942,-2516.700203,-77835.302597
80.921343,-2516.700203,-4441.235652,-78448.178995
80.923726,-7402.059420,1924.535449,-76915.987999
80.926109,8438.347739,-1776.494261,-79061.055394
80.928492,9918.759623,-5033.400406,-79061.055394
80.930936,-888.247130,1628.453072,-77528.864398
80.933380,6661.853478,444.123565,-78448.178995
80.935824,2664.741391,-4885.359217,-77682.083497
80.938268,-5625.565159,-1480.411884,-75537.016103
80.940712,-592.164754,888.247130,-75537.016103
80.943156,3108.864956,-4737.318029,-77988.521696
80.945600,1628.453072,-1332.370696,-79061.055394
80.948044,-4589.276840,1480.411884,-78294.959896
80.950488,12731.542202,-3256.906145,-77222.426198
80.952932,444.123565,-3997.112087,-81359.341888
80.955376,5329.482782,3849.070898,-76303.111601
80.957820,13471.748144,-8142.265362,-76456.330700
80.960264,148.041188,-1184.329507,-77528.864398
80.962708,-5181.441594,2220.617826,-78141.740796
80.965152,6217.729913,-4885.359217,-78754.617194
80.967596,296.082377,-1184.329507,-76456.330700
80.970040,8290.306550,1332.370696,-76456.330700
80.972484,9918.759623,-2072.576638,-77375.645298
80.974928,-3108.864956,-3997.112087,-77528.864398
80.977372,-12583.501014,888.247130,-77988.521696
80.979816,12435.459826,-1628.453072,-78448.178995
80.982260,7550.100608,-4145.153275,-79673.931792
80.984704,-7994.224174,2664.741391,-77682.083497
80.987148,0.000000,-4589.276840,-75996.673402
80.989592,-13915.871710,-3701.029710,-78294.959896
80.992036,-13471.748144,2664.741391,-78601.398095
80.994480,4293.194464,592.164754,-78754.617194
80.996924,10214.842000,-5921.647536,-79367.493593
80.999369,-6513.812290,740.205942,-75843.454302
81.001813,-6661.853478,-1184.329507,-76609.549800
81.004257,-9326.594869,-4885.359217,-77988.521696
81.006701,-11103.089130,1924.535449,-77682.083497
81.009145,1332.370696,444.123565,-78754.617194
81.011589,3256.906145,-6365.771101,-77835.302597
81.014033,-12435.459826,-1924.535449,-79367.493593
81.016477,-11251.130318,2516.700203,-77069.207099
81.018921,-1776.494261,-6809.894666,-77528.864398
81.021365,-12879.583391,-1776.494261,-74617.701505
81.023809,592.164754,3701.029710,-78448.178995
81.026253,8290.306550,-5773.606348,-81206.122788
81.028742,-4589.276840,-888.247130,-76915.987999
81.031231,-2368.659014,0.000000,-75843.454302
81.033721,2516.700203,-5329.482782,-77682.083497
81.036210,-1184.329507,-3849.070898,-78754.617194
81.038700,-13471.748144,3108.864956,-78907.836294
81.041189,-3701.029710,-3701.029710,-79673.931792
81.043678,-7254.018232,-5033.400406,-79214.274493
81.046168,-13471.748144,1776.494261,-77222.426198
81.048657,5773.606348,-2220.617826,-78448.178995
81.051147,-2072.576638,-4145.153275,-79367.493593
81.053636,-7698.141797,1480.411884,-75843.454302
81.056125,-888.247130,-3108.864956,-76609.549800
81.058615,-3256.906145,-5625.565159,-76762.768900
81.061104,-10214.842000,592.164754,-77528.864398
81.063593,3849.070898,-1036.288319,-79061.055394
81.066083,2220.617826,-3701.029710,-79673.931792
81.068572,-9178.553681,-592.164754,-78141.740796
81.071062,8882.471304,-1184.329507,-77069.207099
81.073551,7402.059420,-4737.318029,-77988.521696
81.076040,1480.411884,1924.535449,-78294.959896
81.078530,7254.018232,-1184.329507,-77988.521696
81.081019,5477.523971,-5033.400406,-77988.521696
81.083508,-9918.759623,-2220.617826,-78448.178995
81.085998,3108.864956,4441.235652,-77835.302597
81.088487,13471.748144,-6217.729913,-77835.302597
81.090977,5329.482782,444.123565,-76456.330700
81.093466,3256.906145,1184.329507,-77682.083497
81.095955,-148.041188,-4293.194464,-77835.302597
81.098445,-8882.471304,-1036.288319,-77069.207099
81.100934,6661.853478,-592.164754,-76609.549800
81.103423,17616.901420,-5181.441594,-77222.426198
81.105913,10066.800811,-2960.823768,-79214.274493
81.108402,-2368.659014,3108.864956,-79827.150892
81.110892,1332.370696,-5773.606348,-78448.178995
81.113381,-1628.453072,-3256.906145,-74464.482406
81.115870,-5033.400406,740.205942,-76915.987999
81.118360,11547.212695,296.082377,-79214.274493
81.120849,-4885.359217,-7698.141797,-80593.246390
81.123338,-1184.329507,3701.029710,-80440.027290
81.125828,4441.235652,444.123565,-78141.740796
81.128349,11547.212695,-5181.441594,-76762.768900
81.130870,148.041188,444.123565,-76915.987999
81.133391,10510.924376,-1628.453072,-79673.931792
81.135912,2960.823768,-4145.153275,-80133.589091
81.138434,-5921.647536,1332.370696,-77222.426198
81.140955,10066.800811,-2664.741391,-76609.549800
81.143476,10362.883188,-3849.070898,-78141.740796
81.145997,-6217.729913,-1332.370696,-76303.111601
81.148518,-3256.906145,3701.029710,-77528.864398
81.151040,2960.823768,-7846.182985,-79520.712692
81.153561,1036.288319,-592.164754,-77222.426198
81.156082,4293.194464,740.205942,-77682.083497
81.158603,148.041188,-3997.112087,-77988.521696
81.161124,-19541.436869,-2664.741391,-77222.426198
81.163645,-9622.677246,1480.411884,-77528.864398
81.166167,-1480.411884,-5033.400406,-76762.768900
81.168688,3701.029710,-3701.029710,-79214.274493
81.171209,-2960.823768,888.247130,-76915.987999
81.173730,3701.029710,-3997.112087,-76915.987999
81.176251,-12731.542202,-2812.782580,-78294.959896
81.178772,-17764.942608,3404.947333,-78448.178995
81.181294,3108.864956,-3552.988522,-77069.207099
81.183815,296.082377,-3256.906145,-77069.207099
81.186336,1332.370696,592.164754,-77682.083497
81.188857,1480.411884,296.082377,-76762.768900
81.191378,-1184.329507,-3552.988522,-79214.274493
81.193899,-15544.324782,-296.082377,-77375.645298
81.196421,1776.494261,-1036.288319,-77988.521696
81.198942,4737.318029,-4441.235652,-76609.549800
81.201463,-4293.194464,740.205942,-77988.521696
81.203984,3997.112087,740.205942,-78754.617194
81.206505,-2220.617826,-5181.441594,-79673.931792
81.209027,-11103.089130,888.247130,-75843.454302
81.211548,-9178.553681,2220.617826,-78294.959896
81.214069,-740.205942,-5181.441594,-75383.797003
81.216590,-13767.830521,-5033.400406,-78141.740796
81.219111,-7105.977043,4441.235652,-77528.864398
81.221632,-148.041188,-5329.482782,-80133.589091
81.224154,-7254.018232,-1036.288319,-77682.083497
81.226675,-2516.700203,-1184.329507,-75383.797003
81.229220,-148.041188,-4885.359217,-78294.959896
81.231764,-12879.583391,-740.205942,-78448.178995
81.234309,-6365.771101,3404.947333,-77222.426198
81.236854,4293.194464,-5181.441594,-79673.931792
81.239399,-4441.235652,-3108.864956,-77988.521696
81.241943,-3404.947333,1628.453072,-75843.454302
81.244488,15544.324782,-4293.194464,-77682.083497
81.247033,4589.276840,-2072.576638,-79520.712692
81.249578,1184.329507,3849.070898,-77528.864398
81.252122,6069.688724,-7402.059420,-77988.521696
81.254667,-7994.224174,-2072.576638,-77069.207099
81.257212,-8290.306550,-296.082377,-77069.207099
81.259757,11399.171507,1036.288319,-77835.302597
81.262302,13471.748144,-6809.894666,-79367.493593
81.264846,2220.617826,1628.453072,-76609.549800
81.267391,7402.059420,-2072.576638,-78141.740796
81.269936,-2220.617826,-2812.782580,-78294.959896
81.272481,-9474.636058,888.247130,-78601.398095
81.275025,5477.523971,2516.700203,-76149.892501
81.277570,11695.253884,-4589.276840,-78754.617194
81.280115,2812.782580,-3552.988522,-77988.521696
81.282660,-4885.359217,3701.029710,-75383.797003
81.285204,1924.535449,-6365.771101,-76456.330700
81.287749,-6365.771101,-1184.329507,-79061.055394
81.290294,1924.535449,1332.370696,-76456.330700
81.292839,7254.018232,-2812.782580,-77988.521696
81.295384,4293.194464,-3404.947333,-80440.027290
81.297928,-3849.070898,1036.288319,-76762.768900
81.300473,16876.695478,-1776.494261,-75690.235202
81.303018,2664.741391,-4885.359217,-79214.274493
81.305563,2220.617826,3701.029710,-79061.055394
81.308107,9178.553681,-6069.688724,-79214.274493
81.310597,-148.041188,-2664.741391,-77069.207099
81.313087,-2072.576638,1036.288319,-78754.617194
81.315577,6957.935855,1036.288319,-77222.426198
81.318067,888.247130,-6365.771101,-76915.987999
81.320557,-9474.636058,740.205942,-76915.987999
81.323046,8882.471304,-444.123565,-78448.178995
81.325536,12731.542202,-5329.482782,-78754.617194
81.328026,-7550.100608,1924.535449,-77682.083497
81.330516,-4737.318029,-592.164754,-76609.549800
81.333006,-13915.871710,-4737.318029,-77069.207099
81.335496,-11547.212695,-1776.494261,-77069.207099
81.337985,-148.041188,3404.947333,-78448.178995
81.340475,10658.965565,-6809.894666,-78907.836294
81.342965,-4145.153275,-2516.700203,-77222.426198
81.345455,-7698.141797,1036.288319,-77682.083497
81.347945,-11103.089130,-5181.441594,-78754.617194
81.350435,-16728.654289,-148.041188,-75843.454302
81.352924,2960.823768,1184.329507,-76456.330700
81.355414,11695.253884,-6365.771101,-76456.330700
81.357904,8734.430116,-6217.729913,-77069.207099
81.360394,-7698.141797,5033.400406,-77835.302597
81.362884,-6513.812290,-2368.659014,-80593.246390
81.365374,-3997.112087,-4145.153275,-76762.768900
81.367863,-3108.864956,1480.411884,-75843.454302
81.370353,6513.812290,-2960.823768,-78141.740796
81.372843,1036.288319,-4293.194464,-81665.780087
81.375333,-14211.954086,2664.741391,-78754.617194
81.377823,-7254.018232,4145.153275,-78754.617194
81.380313,-2072.576638,-6661.853478,-79673.931792
81.382802,-13175.665768,296.082377,-75077.358804
81.385292,-2516.700203,-1480.411884,-76762.768900
81.387782,-1924.535449,-5773.606348,-82278.656485
81.390272,-13767.830521,2960.823768,-79827.150892
81.392762,3552.988522,-740.205942,-76609.549800
81.395252,-2516.700203,-4293.194464,-76609.549800
81.397741,-10807.006753,1184.329507,-76303.111601
81.400231,-2812.782580,2220.617826,-77222.426198
81.402721,3997.112087,-6513.812290,-79980.369991
81.405211,-12287.418637,-592.164754,-79520.712692
81.407701,-1480.411884,0.000000,-76303.111601
81.410221,8586.388927,-6365.771101,-75537.016103
81.412742,4441.235652,-2220.617826,-77222.426198
81.415262,10658.965565,2664.741391,-78601.398095
81.417783,5329.482782,-5329.482782,-79214.274493
81.420304,-9918.759623,-1036.288319,-74464.482406
81.422824,-10066.800811,1776.494261,-77069.207099
81.425345,9770.718434,-2960.823768,-78141.740796
81.427866,5329.482782,-3552.988522,-79061.055394
81.430386,11399.171507,2368.659014,-77528.864398
81.432907,12731.542202,-4589.276840,-78448.178995
81.435427,-4145.153275,-1628.453072,-78294.959896
81.437948,-6957.935855,2220.617826,-78601.398095
81.440469,-1480.411884,-3256.906145,-79673.931792
81.442989,-7550.100608,-5181.441594,-78294.959896
81.445510,9030.512492,296.082377,-78294.959896
81.448030,148.041188,296.082377,-76609.549800
81.450551,592.164754,-5773.606348,-76915.987999
81.453072,-7994.224174,1184.329507,-77988.521696
81.455592,-3256.906145,148.041188,-79827.150892
81.458113,9622.677246,-3849.070898,-77835.302597
81.460633,-1184.329507,-1776.494261,-76762.768900
81.463154,13027.624579,592.164754,-76609.549800
81.465675,5773.606348,-4737.318029,-80440.027290
81.468195,-148.041188,-1184.329507,-79061.055394
81.470716,1332.370696,2220.617826,-78141.740796
81.473236,11695.253884,-6661.853478,-78448.178995
81.475757,-1924.535449,-3108.864956,-76456.330700
81.478278,7402.059420,3997.112087,-76303.111601
81.480798,2220.617826,-5921.647536,-79520.712692
81.483319,-9622.677246,-444.123565,-75843.454302
81.485839,-888.247130,-888.247130,-75996.673402
81.488360,12583.501014,-3997.112087,-78294.959896
81.490881,4145.153275,-5329.482782,-79520.712692
81.493401,-7550.100608,3997.112087,-77069.207099
81.495922,-7254.018232,-5625.565159,-77375.645298
81.498442,-17912.983796,-2664.741391,-76762.768900
81.500963,-10214.842000,2516.700203,-77528.864398
81.503484,12287.418637,-3997.112087,-79673.931792
81.506004,1184.329507,-4293.194464,-79827.150892
81.508525,-2516.700203,2220.617826,-77222.426198
81.511057,-9770.718434,-148.041188,-78448.178995
81.513601,-12731.542202,-3997.112087,-78294.959896
81.516145,-12879.583391,-296.082377,-78294.959896
81.518689,11991.336260,-148.041188,-77682.083497
81.521233,296.082377,-3997.112087,-78907.836294
81.523777,-3849.070898,-2072.576638,-78141.740796
81.526322,-4589.276840,1332.370696,-76149.892501
81.528866,-3849.070898,-4441.235652,-79367.493593
81.531410,-16580.613101,-6365.771101,-78141.740796
81.533954,-3849.070898,6957.935855,-75383.797003
81.536498,10066.800811,-9770.718434,-79214.274493
81.539042,-8882.471304,-1776.494261,-78601.398095
81.541586,-888.247130,3701.029710,-77069.207099
81.544130,-740.205942,-4589.276840,-78754.617194
81.546675,-15248.242405,-2368.659014,-77375.645298
81.549219,-7846.182985,1776.494261,-74311.263306
81.551763,2812.782580,-8438.347739,-78448.178995
81.554307,-7994.224174,-3404.947333,-78448.178995
81.556851,-10510.924376,3552.988522,-77069.207099
81.559395,1184.329507,-5329.482782,-77988.521696
81.561939,-7550.100608,-2812.782580,-78448.178995
81.564484,-5625.565159,1628.453072,-77988.521696
81.567028,7846.182985,-3997.112087,-79061.055394
81.569572,-11399.171507,-4441.235652,-78907.836294
81.572116,-6217.729913,2960.823768,-77682.083497
81.574660,12879.583391,-7105.977043,-76456.330700
81.577204,10066.800811,-1924.535449,-79061.055394
81.579748,0.000000,-444.123565,-77988.521696
81.582293,6809.894666,1036.288319,-77682.083497
81.584837,-2664.741391,-6661.853478,-78294.959896
81.587381,-11547.212695,1332.370696,-77069.207099
81.589925,7402.059420,-740.205942,-77988.521696
81.592469,8734.430116,-3256.906145,-77835.302597
81.595013,7550.100608,-296.082377,-76915.987999
81.597557,10658.965565,-1036.288319,-76149.892501
81.600102,2812.782580,-3552.988522,-77682.083497
81.602646,-19097.313304,-1924.535449,-79061.055394
81.605190,1628.453072,1480.411884,-76915.987999
81.607734,9030.512492,-6957.935855,-79367.493593
81.610278,1924.535449,-740.205942,-79520.712692
81.612840,2516.700203,888.247130,-77528.864398
81.615402,1184.329507,-4737.318029,-77069.207099
81.617964,-4737.318029,-3256.906145,-76303.111601
81.620526,-2220.617826,1924.535449,-75537.016103
81.623088,8882.471304,-2960.823768,-76762.768900
81.625650,6513.812290,-6661.853478,-78294.959896
81.628212,3404.947333,4145.153275,-77222.426198
81.630774,12731.542202,-4441.235652,-79827.150892
81.633336,-1184.329507,-2664.741391,-79214.274493
81.635898,296.082377,2220.617826,-76762.768900
81.638460,11991.336260,-5921.647536,-77682.083497
81.641022,4737.318029,-2220.617826,-78294.959896
81.643585,-4293.194464,3849.070898,-77069.207099
81.646147,-444.123565,1332.370696,-77528.864398
81.648709,2664.741391,-6809.894666,-78448.178995
81.651271,2960.823768,1036.288319,-77222.426198
81.653833,11251.130318,-1628.453072,-77069.207099
81.656395,-2072.576638,-3997.112087,-79061.055394
81.658957,-22946.384202,148.041188,-77528.864398
81.661519,-5921.647536,-296.082377,-77222.426198
81.664081,-6957.935855,-4885.359217,-77988.521696
81.666643,1036.288319,-444.123565,-77835.302597
81.669205,7402.059420,296.082377,-77069.207099
81.671767,148.041188,-4737.318029,-76303.111601
81.674329,-17320.819043,-2220.617826,-78141.740796
81.676891,-15840.407159,1184.329507,-78907.836294
81.679453,0.000000,-3256.906145,-78141.740796
81.682015,148.041188,-2220.617826,-77835.302597
81.684577,4589.276840,3108.864956,-77682.083497
81.687139,6513.812290,-4145.153275,-78448.178995
81.689701,-6513.812290,-5033.400406,-75537.016103
81.692263,-8734.430116,-444.123565,-77835.302597
81.694825,1036.288319,148.041188,-78448.178995
81.697387,9770.718434,-3256.906145,-77835.302597
81.699949,-7994.224174,-5033.400406,-77835.302597
81.702511,-2516.700203,3404.947333,-74617.701505
81.705073,-1924.535449,-4737.318029,-78448.178995
81.707635,-14508.036463,1184.329507,-80593.246390
81.710197,-7550.100608,444.123565,-75843.454302
81.712759,2516.700203,-4885.359217,-79061.055394
81.715334,-6957.935855,-2220.617826,-79827.150892
81.717909,-9918.759623,2220.617826,-76915.987999
81.720484,2072.576638,-5921.647536,-77528.864398
81.723059,-10658.965565,-2072.576638,-77682.083497
81.725634,-3404.947333,2664.741391,-77835.302597
81.728209,7550.100608,-5477.523971,-76609.549800
81.730784,-12139.377449,-3108.864956,-76762.768900
81.733358,-1036.288319,2368.659014,-76762.768900
81.735933,12879.583391,-2072.576638,-76609.549800
81.738508,10955.047942,-3701.029710,-78141.740796
81.741083,-2960.823768,1776.494261,-78601.398095
81.743658,8290.306550,-2516.700203,-78141.740796
81.746233,-6809.894666,-2664.741391,-75996.673402
81.748808,-9770.718434,888.247130,-77835.302597
81.751383,10510.924376,-2220.617826,-79061.055394
81.753957,9918.759623,-4293.194464,-79520.712692
81.756532,3997.112087,-888.247130,-77069.207099
81.759107,4737.318029,-148.041188,-77222.426198
81.761682,3701.029710,-3701.029710,-76609.549800
81.764257,-9178.553681,740.205942,-76149.892501
81.766832,1184.329507,1036.288319,-79367.493593
81.769407,13027.624579,-6809.894666,-78141.740796
81.771982,-2812.782580,592.164754,-76303.111601
81.774556,-1924.535449,296.082377,-75843.454302
81.777131,1036.288319,-6513.812290,-78601.398095
81.779706,-6809.894666,-2368.659014,-78907.836294
81.782281,-7402.059420,2072.576638,-78907.836294
81.784856,17320.819043,-4589.276840,-78448.178995
81.787431,5329.482782,-4441.235652,-77835.302597
81.790006,5329.482782,1924.535449,-78294.959896
81.792581,8438.347739,-5329.482782,-79520.712692
81.795155,148.041188,-148.041188,-77375.645298
81.797730,1924.535449,2072.576638,-75690.235202
81.800305,13027.624579,-7698.141797,-77988.521696
81.802880,-592.164754,-3849.070898,-77222.426198
81.805455,-10955.047942,2516.700203,-77375.645298
81.808030,5477.523971,-3108.864956,-78754.617194
81.810605,11991.336260,-3701.029710,-79061.055394
81.813180,-3108.864956,1776.494261,-77682.083497
81.815755,2368.659014,-1924.535449,-78294.959896
81.818337,-15248.242405,-5181.441594,-77375.645298
81.820920,-17912.983796,2220.617826,-77528.864398
81.823503,-3701.029710,1332.370696,-78907.836294
81.826086,10362.883188,-3701.029710,-78448.178995
81.828668,-2072.576638,-2812.782580,-76456.330700
81.831251,-740.205942,444.123565,-76149.892501
81.833834,-10362.883188,-5477.523971,-77682.083497
81.836417,-20429.683999,888.247130,-76609.549800
81.838999,-4145.153275,1628.453072,-76915.987999
81.841582,10214.842000,-6069.688724,-77222.426198
81.844165,-5329.482782,2220.617826,-78294.959896
81.846748,-5033.400406,1776.494261,-77988.521696
81.849330,-1776.494261,-5329.482782,-79520.712692
81.851913,-8882.471304,-1628.453072,-77375.645298
81.854496,-6513.812290,2220.617826,-78141.740796
81.857079,11695.253884,-4145.153275,-78294.959896
81.859661,-2368.659014,-2960.823768,-77069.207099
81.862244,-1480.411884,1776.494261,-77375.645298
81.864827,-3108.864956,-6513.812290,-77988.521696
81.867410,-16876.695478,-444.123565,-77528.864398
81.869992,-14656.077652,2812.782580,-78294.959896
81.872575,5921.647536,-2368.659014,-77375.645298
81.875158,-3256.906145,-3404.947333,-76303.111601
81.877741,-14359.995275,1628.453072,-76915.987999
81.880324,740.205942,-592.164754,-79367.493593
81.882906,-3108.864956,-4737.318029,-79673.931792
81.885489,-9622.677246,1332.370696,-78448.178995
81.888072,3404.947333,-2664.741391,-77682.083497
81.890655,-7105.977043,-3849.070898,-79214.274493
81.893237,1332.370696,-2812.782580,-75996.673402
81.895820,13619.789333,1184.329507,-77222.426198
81.898403,12731.542202,-4737.318029,-79980.369991
81.900986,-7846.182985,148.041188,-77988.521696
81.903568,888.247130,-148.041188,-76609.549800
81.906151,-2072.576638,-5477.523971,-77069.207099
81.908734,-3701.029710,296.082377,-77528.864398
81.911317,9474.636058,-296.082377,-78601.398095
81.913899,17320.819043,-4145.153275,-78754.617194
81.916482,-296.082377,-2368.659014,-77835.302597
81.919065,-7846.182985,1776.494261,-78448.178995
81.921653,8438.347739,-6661.853478,-77375.645298
81.924242,-3997.112087,-592.164754,-77835.302597
81.926831,-2664.741391,1480.411884,-77988.521696
81.929419,17320.819043,-5625.565159,-77835.302597
81.932008,-2072.576638,-2368.659014,-77375.645298
81.934596,-6217.729913,2516.700203,-75690.235202
81.937185,7698.141797,-888.247130,-76762.768900
81.939773,5329.482782,-3849.070898,-79061.055394
81.942362,-6661.853478,1480.411884,-78754.617194
81.944950,14952.160028,-1480.411884,-77682.083497
81.947539,10807.006753,-5921.647536,-77988.521696
81.950127,-1184.329507,2368.659014,-76762.768900
81.952716,10510.924376,-2960.823768,-78907.836294
81.955305,3404.947333,-3849.070898,-78754.617194
81.957893,-2220.617826,3552.988522,-77222.426198
81.960482,-1332.370696,-148.041188,-77835.302597
81.963070,4441.235652,-5033.400406,-76762.768900
81.965659,-3552.988522,-2516.700203,-77375.645298
81.968247,11695.253884,1184.329507,-77069.207099
81.970836,6217.729913,-6957.935855,-77988.521696
81.973424,-17172.777854,2220.617826,-75843.454302
81.976013,-14211.954086,-592.164754,-77528.864398
81.978601,-5477.523971,-3404.947333,-77682.083497
81.981190,-10362.883188,-444.123565,-77222.426198
81.983779,4293.194464,3256.906145,-78294.959896
81.986367,9474.636058,-6809.894666,-77988.521696
81.988956,-13323.706956,-3552.988522,-76609.549800
81.991544,-18801.230927,4589.276840,-77222.426198
81.994133,-4145.153275,-6217.729913,-80286.808190
81.996721,-4737.318029,-444.123565,-77835.302597
81.999310,4145.153275,1924.535449,-77682.083497
82.001898,6661.853478,-7698.141797,-77835.302597
82.004487,-7698.141797,-2960.823768,-77682.083497
82.007075,-13471.748144,2516.700203,-76915.987999
82.009664,-3849.070898,-2516.700203,-75996.673402
82.012253,5181.441594,-3701.029710,-77682.083497
82.014841,-2812.782580,-888.247130,-79673.931792
82.017430,4589.276840,1184.329507,-79520.712692
82.020018,-7254.018232,-5921.647536,-79827.150892
82.022607,-17616.901420,2072.576638,-76303.111601
82.025144,-4885.359217,-2072.576638,-76456.330700
82.027681,444.123565,-6957.935855,-75996.673402
82.030218,-7994.224174,-592.164754,-75690.235202
82.032755,-2220.617826,-148.041188,-77528.864398
82.035292,1184.329507,-3849.070898,-79673.931792
82.037829,-12139.377449,-1480.411884,-75077.358804
82.040366,1036.288319,592.164754,-75537.016103
82.042903,-2960.823768,-5921.647536,-79673.931792
82.045440,-12731.542202,1184.329507,-78294.959896
82.047977,8882.471304,-1036.288319,-77069.207099
82.050514,19393.395680,-3997.112087,-78601.398095
82.053051,3997.112087,-2220.617826,-78294.959896
82.055588,-2664.741391,2960.823768,-77682.083497
82.058125,3404.947333,-5921.647536,-79061.055394
82.060662,-11695.253884,-1924.535449,-77375.645298
82.063199,-592.164754,2960.823768,-77222.426198
82.065736,17024.736666,-6513.812290,-78907.836294
82.068273,7105.977043,-2072.576638,-77069.207099
82.070810,6513.812290,2072.576638,-76609.549800
82.073347,3849.070898,-2368.659014,-79061.055394
82.075884,-4885.359217,-2960.823768,-78754.617194
82.078421,-8586.388927,1924.535449,-77375.645298
82.080958,9622.677246,-1776.494261,-77988.521696
82.083495,7105.977043,-5477.523971,-80440.027290
82.086032,-7402.059420,3108.864956,-79061.055394
82.088569,3701.029710,-3108.864956,-78141.740796
82.091106,2664.741391,-4589.276840,-79061.055394
82.093643,-1332.370696,-2368.659014,-78907.836294
82.096180,8586.388927,1924.535449,-78448.178995
82.098717,12583.501014,-6513.812290,-78448.178995
82.101254,2368.659014,-444.123565,-77835.302597
82.103791,6957.935855,2072.576638,-75537.016103
82.106328,12879.583391,-5477.523971,-77835.302597
82.108865,-740.205942,-2516.700203,-78601.398095
82.111403,-6661.853478,3701.029710,-77682.083497
82.113940,2960.823768,-4589.276840,-79520.712692
82.116477,-2368.659014,-2368.659014,-77375.645298
82.119014,6069.688724,296.082377,-77222.426198
82.121551,4145.153275,444.123565,-76762.768900
82.124088,-6957.935855,-5181.441594,-78294.959896
82.126640,-25463.084405,1924.535449,-76915.987999
82.129193,-4441.235652,-1036.288319,-78448.178995
82.131745,-2072.576638,-4589.276840,-78907.836294
82.134298,2368.659014,1036.288319,-76609.549800
82.136851,9474.636058,-1184.329507,-77375.645298
82.139403,-3256.906145,-4441.235652,-77682.083497
82.141956,-22946.384202,-1184.329507,-78294.959896
82.144508,-13767.830521,3108.864956,-77528.864398
82.147061,592.164754,-4293.194464,-77682.083497
82.149613,4293.194464,-3256.906145,-75843.454302
82.152166,-444.123565,1480.411884,-77069.207099
82.154719,6661.853478,-6957.935855,-79214.274493
82.157271,-15248.242405,296.082377,-76456.330700
82.159824,-6957.935855,2072.576638,-75230.577904
82.162376,7698.141797,-6957.935855,-78141.740796
82.164929,9918.759623,-4293.194464,-78907.836294
82.167482,-9918.759623,2368.659014,-77682.083497
82.170034,-1776.494261,-3404.947333,-78294.959896
82.172587,-13323.706956,-3997.112087,-77069.207099
82.175139,-16580.613101,2220.617826,-76609.549800
82.177692,1332.370696,-444.123565,-77528.864398
82.180244,-7698.141797,-6217.729913,-81818.999186
82.182797,-4589.276840,4885.359217,-77682.083497
82.185350,-592.164754,-1480.411884,-78754.617194
82.187902,-148.041188,-5033.400406,-78601.398095
82.190455,-10658.965565,-1036.288319,-76609.549800
82.193007,-2516.700203,592.164754,-76149.892501
82.195560,5329.482782,-5625.565159,-79520.712692
82.198113,3256.906145,888.247130,-77835.302597
82.200665,20281.642811,-444.123565,-76149.892501
82.203218,6069.688724,-5329.482782,-78601.398095
82.205770,-9178.553681,592.164754,-77682.083497
82.208323,-7105.977043,1924.535449,-76915.987999
82.210876,4737.318029,-4293.194464,-78754.617194
82.213428,2664.741391,-1036.288319,-77682.083497
82.215981,14952.160028,1480.411884,-77222.426198
82.218533,14508.036463,-6217.729913,-78141.740796
82.221086,-3552.988522,-1480.411884,-77528.864398
82.223638,-4293.194464,2812.782580,-78754.617194
82.226191,0.000000,-5033.400406,-78294.959896
82.228756,7254.018232,-3108.864956,-79673.931792
82.231321,-1776.494261,888.247130,-78294.959896
82.233886,7254.018232,-2664.741391,-76762.768900
82.236451,-3256.906145,-3404.947333,-77222.426198
82.239016,-6217.729913,2664.741391,-78294.959896
82.241580,10807.006753,-3552.988522,-79061.055394
82.244145,6957.935855,-3997.112087,-79827.150892
82.246710,5921.647536,2664.741391,-76149.892501
82.249275,16728.654289,-5921.647536,-77682.083497
82.251840,8882.471304,-4737.318029,-76762.768900
82.254405,-4293.194464,-296.082377,-75690.235202
82.256970,4441.235652,0.000000,-77069.207099
82.259535,296.082377,-5773.606348,-78754.617194
82.262100,-6365.771101,888.247130,-75537.016103
82.264665,8142.265362,-2368.659014,-78141.740796
82.267230,14211.954086,-3256.906145,-78907.836294
82.269794,-5477.523971,-592.164754,-79061.055394
82.272359,-2664.741391,-592.164754,-77069.207099
82.274924,-11843.295072,-4589.276840,-77222.426198
82.277489,-11991.336260,-1332.370696,-78601.398095
82.280054,-2664.741391,4293.194464,-77682.083497
82.282619,13323.706956,-6217.729913,-78601.398095
82.285184,-4737.318029,-2812.782580,-76609.549800
82.287749,-5625.565159,1628.453072,-76303.111601
82.290314,-13175.665768,-4737.318029,-78141.740796
82.292879,-18949.272115,-1184.329507,-77682.083497
82.295444,-6513.812290,592.164754,-77069.207099
82.298008,10955.047942,-3404.947333,-77835.302597
82.300573,-3108.864956,-4293.194464,-78141.740796
82.303138,-2368.659014,1628.453072,-75843.454302
82.305703,-888.247130,-4293.194464,-79673.931792
82.308268,-7550.100608,0.000000,-77988.521696
82.310833,2664.741391,0.000000,-78601.398095
82.313398,-888.247130,-3404.947333,-77835.302597
82.315963,-3701.029710,-3701.029710,-77375.645298
82.318528,-13619.789333,1776.494261,-78601.398095
82.321093,-9178.553681,592.164754,-74924.139704
82.323658,-9030.512492,-4885.359217,-77069.207099
82.326222,-12731.542202,0.000000,-78754.617194
82.328787,3552.988522,296.082377,-76609.549800
82.331361,2072.576638,-5181.441594,-79673.931792
82.333934,-9770.718434,740.205942,-78141.740796
82.336507,2516.700203,-444.123565,-76609.549800
82.339081,-6365.771101,-6217.729913,-78907.836294
82.341654,-7846.182985,-1332.370696,-77528.864398
82.344227,11399.171507,1924.535449,-78141.740796
82.346800,17912.983796,-2960.823768,-78448.178995
82.349374,4589.276840,-2960.823768,-77835.302597
82.351947,-1924.535449,3997.112087,-75996.673402
82.354520,-1332.370696,-6661.853478,-78141.740796
82.357093,-13323.706956,-1036.288319,-77222.426198
82.359667,5625.565159,2072.576638,-77222.426198
82.362240,18061.024985,-4737.318029,-78294.959896
82.364813,12879.583391,-5033.400406,-78294.959896
82.367387,0.000000,740.205942,-77835.302597
82.369960,-2664.741391,-1332.370696,-79520.712692
82.372533,-9474.636058,-4589.276840,-79214.274493
82.375106,1036.288319,2960.823768,-77222.426198
82.377680,11103.089130,-4737.318029,-78907.836294
82.380253,5329.482782,-444.123565,-78754.617194
82.382826,-7254.018232,444.123565,-78907.836294
82.385400,6513.812290,-148.041188,-75230.577904
82.387973,8586.388927,-4589.276840,-78294.959896
82.390546,1036.288319,-1036.288319,-79061.055394
82.393119,14804.118840,1924.535449,-76915.987999
82.395693,14804.118840,-5921.647536,-78754.617194
82.398266,-296.082377,740.205942,-77222.426198
82.400839,6069.688724,-740.205942,-75996.673402
82.403413,1332.370696,-4145.153275,-78294.959896
82.405986,-11843.295072,740.205942,-77988.521696
82.408559,5625.565159,-1776.494261,-77222.426198
82.411132,15692.365970,-5329.482782,-79061.055394
82.413706,7402.059420,-2368.659014,-77682.083497
82.416279,-4145.153275,3701.029710,-77222.426198
82.418852,-11251.130318,-6809.894666,-77222.426198
82.421425,-23834.631332,-1036.288319,-76303.111601
82.423999,-5033.400406,2516.700203,-77988.521696
82.426572,6957.935855,-3701.029710,-79367.493593
82.429145,2220.617826,-1924.535449,-78448.178995
82.431719,1924.535449,740.205942,-77222.426198
82.434298,-6957.935855,-3404.947333,-77835.302597
82.436878,-16432.571912,-2664.741391,-78448.178995
82.439457,-18505.148550,2220.617826,-78448.178995
82.442036,5181.441594,-2368.659014,-77988.521696
82.444616,3552.988522,-5625.565159,-79061.055394
82.447195,-8438.347739,2220.617826,-76762.768900
82.449775,5033.400406,-3849.070898,-79061.055394
82.452354,-4145.153275,-3849.070898,-79061.055394
82.454934,-6365.771101,740.205942,-77835.302597
82.457513,444.123565,-296.082377,-76456.330700
82.460093,7550.100608,-4293.194464,-76762.768900
82.462672,-14804.118840,-740.205942,-77988.521696
82.465252,-11251.130318,592.164754,-77682.083497
82.467831,-8438.347739,-4589.276840,-77222.426198
82.470411,-15396.283594,444.123565,-76456.330700
82.472990,-1924.535449,888.247130,-75843.454302
82.475569,3404.947333,-5181.441594,-78448.178995
82.478149,-9178.553681,-1332.370696,-78601.398095
82.480728,-3849.070898,1480.411884,-77069.207099
82.483308,-1184.329507,-6069.688724,-77222.426198
82.485887,-12287.418637,-2812.782580,-77069.207099
82.488467,6809.894666,2812.782580,-77222.426198
82.491046,20429.683999,-5477.523971,-79367.493593
82.493626,7994.224174,-148.041188,-77682.083497
82.496205,-444.123565,1184.329507,-76609.549800
82.498785,1036.288319,-1628.453072,-77682.083497
82.501364,-9474.636058,-5181.441594,-77528.864398
82.503944,-3404.947333,2368.659014,-78754.617194
82.506523,18949.272115,-2664.741391,-79520.712692
82.509102,15544.324782,-3701.029710,-78907.836294
82.511682,3849.070898,1924.535449,-77222.426198
82.514261,-1480.411884,-3108.864956,-79214.274493
82.516841,-9178.553681,-3108.864956,-78294.959896
82.519420,-3997.112087,2812.782580,-78448.178995
82.522000,4441.235652,-1184.329507,-76915.987999
82.524579,2960.823768,-1480.411884,-77222.426198
82.527159,2072.576638,-5181.441594,-77222.426198
82.529738,-6513.812290,2072.576638,-76609.549800
82.532318,8882.471304,-3552.988522,-77835.302597
82.534897,5329.482782,-3701.029710,-80899.684589
82.537475,11399.171507,2812.782580,-77528.864398
82.540059,15988.448347,-5921.647536,-75383.797003
82.542644,3108.864956,-4293.194464,-79673.931792
82.545228,-9474.636058,1184.329507,-75230.577904
82.547812,-1776.494261,148.041188,-76456.330700
82.550397,740.205942,-5477.523971,-79520.712692
82.552981,-1036.288319,592.164754,-77375.645298
82.555565,22354.219448,-1036.288319,-77835.302597
82.558150,7105.977043,-3997.112087,-78141.740796
82.560734,-20281.642811,1184.329507,-77682.083497
82.563318,-14359.995275,-1628.453072,-77988.521696
82.565903,-13915.871710,-4441.235652,-77375.645298
82.568487,-5181.441594,148.041188,-80286.808190
82.571071,11399.171507,2072.576638,-78141.740796
82.573656,8734.430116,-6957.935855,-77682.083497
82.576240,-13175.665768,-1184.329507,-75843.454302
82.578824,-19097.313304,1332.370696,-77988.521696
82.581409,-10214.842000,-4441.235652,-78601.398095
82.583993,-2072.576638,-2368.659014,-76915.987999
82.586577,6809.894666,1480.411884,-77375.645298
82.589161,2664.741391,-5625.565159,-77988.521696
82.591746,-1924.535449,-3108.864956,-78907.836294
82.594330,-10066.800811,2220.617826,-79214.274493
82.596914,3552.988522,-1184.329507,-78754.617194
82.599499,3108.864956,-3108.864956,-77222.426198
82.602083,-1036.288319,2516.700203,-77835.302597
82.604667,1480.411884,-4145.153275,-78448.178995
82.607252,-17764.942608,-4145.153275,-78907.836294
82.609836,-18357.107362,4145.153275,-76762.768900
82.612420,-1628.453072,-7105.977043,-76915.987999
82.615005,148.041188,-4885.359217,-76915.987999
82.617589,-5033.400406,-1480.411884,-77375.645298
82.620176,6069.688724,1332.370696,-79214.274493
82.622763,-1480.411884,-4885.359217,-80286.808190
82.625351,-17024.736666,148.041188,-77528.864398
82.627938,-1628.453072,-2960.823768,-75996.673402
82.630525,9918.759623,-4441.235652,-77375.645298
82.633112,8142.265362,1776.494261,-79061.055394
82.635699,19689.478057,1332.370696,-78141.740796
82.638286,6809.894666,-5921.647536,-78601.398095
82.640873,-13767.830521,-1332.370696,-77375.645298
82.643461,-6809.894666,2368.659014,-77222.426198
82.646048,4737.318029,-5625.565159,-78448.178995
82.648635,8290.306550,0.000000,-77375.645298
82.651222,14508.036463,148.041188,-78294.959896
82.653809,5773.606348,-4885.359217,-77222.426198
82.656396,-9326.594869,-3108.864956,-76303.111601
82.658984,-15396.283594,2516.700203,-78294.959896
82.661571,8586.388927,-2220.617826,-75996.673402
82.664158,10066.800811,-6217.729913,-78754.617194
82.666745,-5033.400406,3404.947333,-78294.959896
82.669332,6069.688724,-2664.741391,-79061.055394
82.671919,-7105.977043,-6365.771101,-77682.083497
82.674507,0.000000,3256.906145,-75537.016103
82.677094,15988.448347,-4293.194464,-78294.959896
82.679681,13915.871710,-4441.235652,-81665.780087
82.682268,2220.617826,-888.247130,-76762.768900
82.684855,9178.553681,1332.370696,-79520.712692
82.687442,-2516.700203,-5181.441594,-80746.465489
82.690030,-14063.912898,2220.617826,-75383.797003
82.692617,3108.864956,-2368.659014,-75690.235202
82.695204,13175.665768,-5181.441594,-77988.521696
82.697791,7105.977043,1332.370696,-79061.055394
82.700378,5181.441594,-1036.288319,-78141.740796
82.702965,-11695.253884,-7105.977043,-79214.274493
82.705552,-25759.166782,-740.205942,-75537.016103
82.708140,-8882.471304,2960.823768,-76456.330700
82.710727,11695.253884,-5477.523971,-77988.521696
82.713314,3849.070898,-1628.453072,-77682.083497
82.715901,3108.864956,0.000000,-77988.521696
82.718488,-9474.636058,-5773.606348,-76609.549800
82.721075,-25167.002028,-592.164754,-76609.549800
82.723664,-18209.066173,2072.576638,-77835.302597
82.726253,9474.636058,-148.041188,-79367.493593
82.728842,1776.494261,-5625.565159,-78754.617194
82.731431,-6661.853478,1480.411884,-76762.768900
82.734020,3108.864956,-4145.153275,-78141.740796
82.736609,-5033.400406,-4293.194464,-79061.055394
82.739198,-9178.553681,5329.482782,-77528.864398
82.741786,5477.523971,-5329.482782,-77988.521696
82.744375,-4293.194464,-3997.112087,-76762.768900
82.746964,-14063.912898,2368.659014,-77835.302597
82.749553,-14359.995275,-296.082377,-76915.987999
82.752142,-7698.141797,-4441.235652,-78601.398095
82.754731,-13323.706956,1184.329507,-78141.740796
82.757320,7698.141797,444.123565,-77682.083497
82.759909,3256.906145,-6365.771101,-78754.617194
82.762497,-6365.771101,2368.659014,-77835.302597
82.765086,-7846.182985,-296.082377,-78754.617194
82.767675,-8290.306550,-5477.523971,-77835.302597
82.770264,1924.535449,-1332.370696,-76609.549800
82.772853,13175.665768,3849.070898,-78754.617194
82.775442,16876.695478,-5773.606348,-77988.521696
82.778031,-1628.453072,-2220.617826,-76149.892501
82.780620,-7846.182985,1628.453072,-76609.549800
82.783208,-1628.453072,-6365.771101,-78601.398095
82.785797,-7254.018232,444.123565,-77375.645298
82.788386,16284.530724,592.164754,-77835.302597
82.790975,21021.848753,-5477.523971,-76762.768900
82.793564,6069.688724,-1332.370696,-77069.207099
82.796153,-9622.677246,1776.494261,-77222.426198
82.798742,3256.906145,-2516.700203,-79827.150892
82.801331,-148.041188,-1480.411884,-80286.808190
82.803919,148.041188,1036.288319,-78448.178995
82.806508,4885.359217,-4441.235652,-77375.645298
82.809097,3108.864956,-3552.988522,-75996.673402
82.811686,-2664.741391,2664.741391,-79214.274493
82.814275,9474.636058,-1036.288319,-80286.808190
82.816864,8734.430116,-3701.029710,-80286.808190
82.819453,6513.812290,1184.329507,-78754.617194
82.822042,14952.160028,-888.247130,-74924.139704
82.824630,4441.235652,-5921.647536,-76609.549800
82.827174,-14952.160028,1924.535449,-76915.987999
82.829718,-3552.988522,1332.370696,-79367.493593
82.832262,6513.812290,-5477.523971,-78601.398095
82.834806,10066.800811,148.041188,-76149.892501
82.837350,12287.418637,-2220.617826,-77069.207099
82.839894,-5033.400406,-6809.894666,-77528.864398
82.842438,-26795.455100,-2072.576638,-75383.797003
82.844982,-16284.530724,2516.700203,-77528.864398
82.847526,2960.823768,-4589.276840,-79827.150892
82.850070,4145.153275,-740.205942,-77682.083497
82.852614,7550.100608,-888.247130,-77222.426198
82.855158,3997.112087,-4737.318029,-76149.892501
82.857702,-25018.960840,-1036.288319,-77988.521696
82.860246,-14804.118840,3701.029710,-77988.521696
82.862790,6957.935855,-3108.864956,-79061.055394
82.865334,5181.441594,-4145.153275,-77988.521696
82.867878,-5181.441594,1924.535449,-78141.740796
82.870422,3701.029710,-3701.029710,-78294.959896
82.872966,-2812.782580,-2664.741391,-78601.398095
82.875510,-6365.771101,1480.411884,-77222.426198
82.878054,10807.006753,-2812.782580,-78448.178995
82.880598,-1776.494261,-2072.576638,-78448.178995
82.883142,-13767.830521,1480.411884,-78141.740796
82.885686,-12583.501014,1480.411884,-77835.302597
82.888230,-9770.718434,-6661.853478,-79673.931792
82.890774,-14359.995275,2368.659014,-76303.111601
82.893318,3701.029710,-148.041188,-75537.016103
82.895862,6809.894666,-5921.647536,-78754.617194
82.898406,-7550.100608,-148.041188,-78448.178995
82.900950,-6809.894666,740.205942,-78448.178995
82.903494,-8438.347739,-5921.647536,-77988.521696
82.906038,444.123565,-444.123565,-77222.426198
82.908582,13619.789333,3404.947333,-76609.549800
82.911126,17172.777854,-5773.606348,-78601.398095
82.913670,-1036.288319,-1924.535449,-78141.740796
82.916214,-6957.935855,2368.659014,-76915.987999
82.918758,-1480.411884,-5921.647536,-77375.645298
82.921302,-4441.235652,-296.082377,-75996.673402
82.923846,12583.501014,1480.411884,-77835.302597
82.926390,18505.148550,-4885.359217,-78754.617194
82.928944,5773.606348,-3256.906145,-78141.740796
82.931498,-10658.965565,2072.576638,-78141.740796
82.934052,5477.523971,-3701.029710,-79980.369991
82.936606,-888.247130,-3108.864956,-77222.426198
82.939160,-3701.029710,2812.782580,-78141.740796
82.941715,12731.542202,-3997.112087,-79673.931792
82.944269,6809.894666,-5181.441594,-77222.426198
82.946823,-5033.400406,-148.041188,-77375.645298
82.949377,8734.430116,1776.494261,-79061.055394
82.951931,22798.343014,-3108.864956,-80899.684589
82.954485,8586.388927,-4589.276840,-79980.369991
82.957039,5033.400406,2072.576638,-75077.358804
82.959593,1036.288319,-4441.235652,-76915.987999
82.962147,-15248.242405,-1036.288319,-78294.959896
82.964701,-6217.729913,1184.329507,-77988.521696
82.967255,19985.560434,-5625.565159,-78141.740796
82.969809,8734.430116,-3997.112087,-78754.617194
82.972363,-8438.347739,2960.823768,-78141.740796
82.974917,-14804.118840,-1776.494261,-76609.549800
82.977472,-14508.036463,-5921.647536,-78294.959896
82.980026,-14508.036463,2812.782580,-77528.864398
82.982580,12583.501014,-444.123565,-77682.083497
82.985134,10510.924376,-5181.441594,-78448.178995
82.987688,-4145.153275,888.247130,-75690.235202
82.990242,-9030.512492,-1628.453072,-77835.302597
82.992796,-15988.448347,-3404.947333,-78448.178995
82.995350,-9622.677246,3404.947333,-78141.740796
82.997904,-148.041188,1480.411884,-77682.083497
83.000458,11991.336260,-6217.729913,-77682.083497
83.003012,-5625.565159,-5033.400406,-79673.931792
83.005566,-12435.459826,4145.153275,-74617.701505
83.008120,11547.212695,-8142.265362,-75996.673402
83.010674,-6957.935855,-296.082377,-77222.426198
83.013228,-2368.659014,3404.947333,-77375.645298
83.015783,-592.164754,-7254.018232,-79214.274493
83.018337,-21169.889941,-4293.194464,-79827.150892
83.020891,-23242.466579,3849.070898,-77222.426198
83.023445,2664.741391,-5181.441594,-78601.398095
83.025999,-3701.029710,-1036.288319,-77069.207099
83.028553,2220.617826,888.247130,-77835.302597
83.031115,7105.977043,-5033.400406,-80440.027290
83.033677,-16728.654289,-2960.823768,-79367.493593
83.036240,-9918.759623,3108.864956,-77528.864398
83.038802,15396.283594,-7105.977043,-79061.055394
83.041364,18357.107362,-4441.235652,-77988.521696
83.043927,5329.482782,1776.494261,-76609.549800
83.046489,6809.894666,-740.205942,-76762.768900
83.049051,-5329.482782,-4885.359217,-79061.055394
83.051614,-13027.624579,2220.617826,-76456.330700
83.054176,9030.512492,-444.123565,-77835.302597
83.056738,14952.160028,-5477.523971,-77528.864398
83.059301,2960.823768,2812.782580,-77528.864398
83.061863,7698.141797,-3552.988522,-77682.083497
83.064425,1184.329507,-4737.318029,-79061.055394
83.066988,-7994.224174,-1776.494261,-77682.083497
83.069550,2960.823768,1036.288319,-76915.987999
83.072112,7105.977043,-5773.606348,-78601.398095
83.074674,-5921.647536,-1924.535449,-78754.617194
83.077237,-4293.194464,-888.247130,-76456.330700
83.079799,10066.800811,-3701.029710,-76915.987999
83.082361,3256.906145,-1480.411884,-77988.521696
83.084924,15840.407159,1332.370696,-77375.645298
83.087486,16580.613101,-5477.523971,-78448.178995
83.090048,740.205942,-3404.947333,-79214.274493
83.092611,-12139.377449,3256.906145,-77835.302597
83.095173,1628.453072,-5181.441594,-77222.426198
83.097735,-2368.659014,-2960.823768,-78294.959896
83.100298,11695.253884,2516.700203,-78141.740796
83.102860,12287.418637,-5181.441594,-79367.493593
83.105422,-13915.871710,-2516.700203,-76762.768900
83.107985,-22650.301825,2516.700203,-75230.577904
83.110547,-7846.182985,-740.205942,-78141.740796
83.113109,444.123565,-3849.070898,-78601.398095
83.115672,1924.535449,444.123565,-78141.740796
83.118234,13471.748144,-3108.864956,-76762.768900
83.120796,-4885.359217,-4145.153275,-77069.207099
83.123358,-26351.331535,1776.494261,-76456.330700
83.125921,-15396.283594,296.082377,-78141.740796
83.128483,1480.411884,-4885.359217,-78448.178995
83.131045,-444.123565,2960.823768,-76456.330700
83.133613,-2960.823768,-296.082377,-76456.330700
83.136181,1628.453072,-3404.947333,-77069.207099
83.138749,-14211.954086,-444.123565,-79061.055394
83.141317,-6513.812290,1332.370696,-75843.454302
83.143885,5625.565159,-6217.729913,-76303.111601
83.146453,-7846.182985,-3256.906145,-75843.454302
83.149021,-13767.830521,1924.535449,-76456.330700
83.151589,-9178.553681,-6069.688724,-77682.083497
83.154157,-13767.830521,-2812.782580,-81052.903688
83.156725,-2664.741391,4441.235652,-78448.178995
83.159293,12287.418637,-5181.441594,-78294.959896
83.161861,-2220.617826,-3849.070898,-78141.740796
83.164429,-13471.748144,2812.782580,-78448.178995
83.166997,-1184.329507,-5033.400406,-78601.398095
83.169565,-1332.370696,-1776.494261,-78601.398095
83.172133,10066.800811,1480.411884,-77682.083497
83.174701,20725.766376,-5329.482782,-77375.645298
83.177269,5181.441594,-5033.400406,-77835.302597
83.179837,-12435.459826,-592.164754,-77528.864398
83.182405,1776.494261,-444.123565,-78754.617194
83.184973,3256.906145,-3997.112087,-79520.712692
83.187540,6365.771101,2812.782580,-77222.426198
83.190108,23686.590144,-2960.823768,-77375.645298
83.192676,3108.864956,-2664.741391,-77988.521696
83.195244,-9622.677246,0.000000,-78141.740796
83.197812,-888.247130,740.205942,-78294.959896
83.200380,4145.153275,-2960.823768,-76762.768900
83.202948,1184.329507,-5181.441594,-77222.426198
83.205516,-148.041188,2072.576638,-76609.549800
83.208084,4145.153275,-5625.565159,-77988.521696
83.210652,-888.247130,-1924.535449,-77069.207099
83.213220,10955.047942,1332.370696,-77375.645298
83.215788,18505.148550,-4293.194464,-79367.493593
83.218356,5181.441594,-1036.288319,-77835.302597
83.220924,-3701.029710,4145.153275,-76762.768900
83.223492,148.041188,-4737.318029,-78448.178995
83.226060,-8882.471304,-1628.453072,-77528.864398
83.228628,3701.029710,1776.494261,-78141.740796
83.231196,20577.725188,-4737.318029,-78141.740796
83.233764,-5625.565159,-2516.700203,-78907.836294
83.236336,-15396.283594,2516.700203,-75996.673402
83.238909,-10658.965565,-7105.977043,-77988.521696
83.241481,-15100.201217,-1184.329507,-77528.864398
83.244054,-3256.906145,888.247130,-77835.302597
83.246626,12879.583391,-1628.453072,-78448.178995
83.249199,2664.741391,-4737.318029,-77375.645298
83.251771,-16876.695478,1036.288319,-76915.987999
83.254343,-8290.306550,-1036.288319,-77682.083497
83.256916,-11991.336260,-1628.453072,-78907.836294
83.259488,-9474.636058,2368.659014,-78448.178995
83.262061,4145.153275,-4145.153275,-77222.426198
83.264633,888.247130,-2812.782580,-77835.302597
83.267206,-5921.647536,-3404.947333,-75690.235202
83.269778,-11399.171507,888.247130,-77222.426198
83.272351,5477.523971,-2516.700203,-76456.330700
83.274923,-10066.800811,-3108.864956,-78601.398095
83.277496,-7698.141797,2960.823768,-76149.892501
83.280068,-10214.842000,-7846.182985,-77222.426198
83.282641,-18357.107362,1480.411884,-76149.892501
83.285213,-5625.565159,0.000000,-77988.521696
83.287785,5477.523971,-2220.617826,-78294.959896
83.290358,1628.453072,-5477.523971,-78294.959896
83.292930,-7994.224174,3108.864956,-77835.302597
83.295503,-3849.070898,-5477.523971,-78754.617194
83.298075,0.000000,-2516.700203,-78601.398095
83.300648,8734.430116,1480.411884,-77682.083497
83.303220,20725.766376,-3849.070898,-78601.398095
83.305793,-1924.535449,-2516.700203,-77682.083497
83.308365,-1184.329507,1480.411884,-75843.454302
83.310938,1036.288319,-6957.935855,-77222.426198
83.313510,1036.288319,-4145.153275,-77835.302597
83.316082,3701.029710,2220.617826,-77222.426198
83.318655,20873.807564,-2368.659014,-78141.740796
83.321227,6957.935855,-3256.906145,-78907.836294
83.323800,-7254.018232,1480.411884,-78448.178995
83.326372,3404.947333,-2960.823768,-78141.740796
83.328945,-4145.153275,-2664.741391,-76456.330700
83.331517,-444.123565,-296.082377,-79827.150892
83.334090,5181.441594,-2368.659014,-77375.645298
83.336662,8734.430116,-4145.153275,-75537.016103
83.339238,-4441.235652,-2368.659014,-76303.111601
83.341814,13471.748144,2072.576638,-77988.521696
83.344390,15544.324782,-4885.359217,-77835.302597
83.346966,8882.471304,-296.082377,-77835.302597
83.349541,1480.411884,592.164754,-76456.330700
83.352117,-296.082377,-5921.647536,-78448.178995
83.354693,-13471.748144,0.000000,-77835.302597
83.357269,7550.100608,3404.947333,-77682.083497
83.359845,16432.571912,-6069.688724,-80286.808190
83.362421,-4293.194464,-4885.359217,-78448.178995
83.364997,-22502.260637,-592.164754,-76609.549800
83.367572,-8734.430116,-148.041188,-77375.645298
83.370148,-5921.647536,-3997.112087,-78754.617194
83.372724,-2812.782580,1776.494261,-78754.617194
83.375300,11695.253884,-2072.576638,-78294.959896
83.377876,1184.329507,-4441.235652,-77222.426198
83.380452,-22946.384202,-2516.700203,-77222.426198
83.383028,-12879.583391,1036.288319,-76609.549800
83.385603,2664.741391,-3108.864956,-78141.740796
83.388179,-6069.688724,-2812.782580,-79061.055394
83.390755,2516.700203,2960.823768,-76762.768900
83.393331,9326.594869,-8586.388927,-77375.645298
83.395907,-8882.471304,-296.082377,-75077.358804
83.398483,-1776.494261,888.247130,-77375.645298
83.401059,1036.288319,-3404.947333,-77682.083497
83.403634,-7994.224174,-1924.535449,-78907.836294
83.406210,-17024.736666,1184.329507,-78754.617194
83.408786,-5477.523971,-4145.153275,-77682.083497
83.411362,-12879.583391,-3997.112087,-76456.330700
83.413938,-3256.906145,5033.400406,-76303.111601
83.416514,7254.018232,-7402.059420,-79980.369991
83.419090,-5921.647536,-1776.494261,-78907.836294
83.421665,-11547.212695,2516.700203,-77069.207099
83.424241,9326.594869,-5477.523971,-77528.864398
83.426817,11547.212695,-4441.235652,-78448.178995
83.429393,8142.265362,592.164754,-76915.987999
83.431969,9622.677246,-740.205942,-77528.864398
83.434545,2812.782580,-4589.276840,-78601.398095
83.437121,-13027.624579,740.205942,-77222.426198
83.439696,5921.647536,-2220.617826,-77988.521696
83.442275,7550.100608,-2960.823768,-77528.864398
83.444853,9622.677246,0.000000,-78294.959896
83.447432,11843.295072,296.082377,-78907.836294
83.450010,6069.688724,-5477.523971,-77069.207099
83.452589,-4589.276840,0.000000,-77988.521696
83.455167,-4441.235652,592.164754,-78448.178995
83.457745,5181.441594,-5033.400406,-76149.892501
83.460324,888.247130,-3849.070898,-76149.892501
83.462902,4589.276840,2072.576638,-79061.055394
83.465481,8586.388927,-5181.441594,-79673.931792
83.468059,3701.029710,-296.082377,-75843.454302
83.470638,14211.954086,0.000000,-74617.701505
83.473216,18505.148550,-4145.153275,-77375.645298
83.475794,-4293.194464,-4441.235652,-75843.454302
83.478373,-9474.636058,2960.823768,-76762.768900
83.480951,5033.400406,-6069.688724,-79673.931792
83.483530,4293.194464,-1628.453072,-77682.083497
83.486108,6957.935855,1332.370696,-77069.207099
83.488687,1332.370696,-4589.276840,-77682.083497
83.491265,-19393.395680,-1924.535449,-78294.959896
83.493843,-18505.148550,1332.370696,-76149.892501
83.496422,-444.123565,-592.164754,-77682.083497
83.499000,6957.935855,-3552.988522,-79061.055394
83.501579,-1184.329507,-148.041188,-77222.426198
83.504157,3997.112087,-444.123565,-76149.892501
83.506736,-13175.665768,-4589.276840,-78294.959896
83.509314,-28127.825796,1776.494261,-77528.864398
83.511892,888.247130,-740.205942,-78294.959896
83.514471,6661.853478,-3701.029710,-79367.493593
83.517049,-5625.565159,-2812.782580,-76149.892501
83.519628,-4145.153275,0.000000,-77528.864398
83.522206,3701.029710,-3256.906145,-77528.864398
83.524785,-11843.295072,-1924.535449,-77988.521696
83.527363,-4441.235652,2516.700203,-74924.139704
83.529941,-3108.864956,-7846.182985,-78294.959896
83.532520,-18653.189738,0.000000,-76609.549800
83.535098,-10955.047942,1332.370696,-76149.892501
83.537677,-2072.576638,-5921.647536,-77835.302597
83.540255,-4293.194464,-740.205942,-77682.083497
83.542833,-2812.782580,2220.617826,-76915.987999
83.545402,3997.112087,-6513.812290,-77528.864398
83.547981,-11843.295072,-2812.782580,-79061.055394
83.550561,4589.276840,2960.823768,-78141.740796
83.553140,16876.695478,-6513.812290,-79980.369991
83.555719,7105.977043,-148.041188,-76149.892501
83.558298,1184.329507,1184.329507,-78141.740796
83.560877,5181.441594,-6513.812290,-78448.178995
83.563457,-2664.741391,-3404.947333,-77682.083497
83.566036,-4293.194464,1924.535449,-77835.302597
83.568615,13767.830521,-1924.535449,-77069.207099
83.571194,8290.306550,-5625.565159,-77835.302597
83.573774,-3849.070898,2368.659014,-76456.330700
83.576353,6809.894666,-2368.659014,-79520.712692
83.578932,-148.041188,-3552.988522,-79061.055394
83.581511,-9622.677246,3108.864956,-76762.768900
83.584090,4589.276840,-3404.947333,-77222.426198
83.586670,9770.718434,-4737.318029,-79520.712692
83.589249,-1628.453072,-2516.700203,-77375.645298
83.591828,7402.059420,2220.617826,-74770.920605
83.594407,18505.148550,-6217.729913,-78448.178995
83.596986,3256.906145,1332.370696,-76149.892501
83.599566,7994.224174,592.164754,-77528.864398
83.602145,-148.041188,-4293.194464,-78448.178995
83.604724,-11103.089130,-888.247130,-76456.330700
83.607303,1480.411884,3108.864956,-77835.302597
83.609883,18653.189738,-6661.853478,-78601.398095
83.612462,-7994.224174,-1480.411884,-78754.617194
83.615041,-15396.283594,2516.700203,-77222.426198
83.617620,-10955.047942,-5625.565159,-77835.302597
83.620199,-14063.912898,-1036.288319,-76762.768900
83.622779,-1924.535449,2368.659014,-78141.740796
83.625358,13027.624579,-5773.606348,-79367.493593
83.627937,-1628.453072,-3256.906145,-77528.864398
83.630516,-15100.201217,3108.864956,-76915.987999
83.633096,-16136.489536,-888.247130,-79980.369991
83.635675,-7105.977043,-2960.823768,-77528.864398
83.638254,-2960.823768,-740.205942,-75537.016103
83.640833,4441.235652,-1332.370696,-77682.083497
83.643412,6365.771101,-3849.070898,-81818.999186
83.645992,-15692.365970,3108.864956,-79520.712692
83.648572,-3849.070898,-1036.288319,-75383.797003
83.651152,-1036.288319,-5329.482782,-79980.369991
83.653732,-15840.407159,-2072.576638,-75843.454302
83.656312,-11547.212695,296.082377,-75230.577904
83.658892,-7254.018232,-4293.194464,-78601.398095
83.661472,-12731.542202,740.205942,-80440.027290
83.664052,-1036.288319,1924.535449,-75996.673402
83.666632,6069.688724,-6069.688724,-77835.302597
83.669212,-11843.295072,-740.205942,-74311.263306
83.671792,-1776.494261,296.082377,-77835.302597
83.674372,14359.995275,-4589.276840,-79061.055394
83.676952,5181.441594,-740.205942,-81052.903688
83.679532,8438.347739,2072.576638,-78141.740796
83.682112,9474.636058,-7254.018232,-78907.836294
83.684692,-7105.977043,-2220.617826,-77375.645298
83.687272,-7402.059420,3404.947333,-78448.178995
83.689852,10214.842000,-6957.935855,-79827.150892
83.692432,6809.894666,-444.123565,-77835.302597
83.695012,14804.118840,2220.617826,-77069.207099
83.697592,9178.553681,-296.082377,-77682.083497
83.700172,-2516.700203,-3256.906145,-79520.712692
83.702752,-6069.688724,2220.617826,-77375.645298
83.705332,3849.070898,-1184.329507,-76762.768900
83.707912,8734.430116,-6661.853478,-78601.398095
83.710492,-3701.029710,2812.782580,-79673.931792
83.713072,11251.130318,-2960.823768,-79520.712692
83.715652,8290.306550,-3849.070898,-79061.055394
83.718232,6069.688724,2072.576638,-76915.987999
83.720812,10807.006753,1480.411884,-75843.454302
83.723392,5477.523971,-5477.523971,-75996.673402
83.725972,-11251.130318,-444.123565,-76303.111601
83.728553,296.082377,296.082377,-78294.959896
83.731133,13027.624579,-3997.112087,-79061.055394
83.733713,-148.041188,-444.123565,-76303.111601
83.736293,-3997.112087,888.247130,-75690.235202
83.738873,-10807.006753,-5921.647536,-77988.521696
83.741453,-22650.301825,1924.535449,-78448.178995
83.744033,-7994.224174,4145.153275,-79061.055394
83.746613,10214.842000,-6217.729913,-79827.150892
83.749193,444.123565,-3701.029710,-76609.549800
83.751773,-4885.359217,1628.453072,-75690.235202
83.754354,-2220.617826,-5477.523971,-78754.617194
83.756935,-20873.807564,592.164754,-79061.055394
83.759515,-3997.112087,2812.782580,-77528.864398
83.762096,8734.430116,-6513.812290,-76915.987999
83.764676,-6069.688724,-1184.329507,-78601.398095
83.767257,-6661.853478,592.164754,-76915.987999
83.769838,-2664.741391,-2516.700203,-78754.617194
83.772418,-5477.523971,-2812.782580,-78294.959896
83.774999,-18061.024985,1184.329507,-78294.959896
83.777580,-2812.782580,-3552.988522,-77682.083497
83.780160,-10214.842000,-3997.112087,-77682.083497
83.782741,-13027.624579,-1776.494261,-78141.740796
83.785321,-740.205942,2220.617826,-77222.426198
83.787902,4885.359217,-5329.482782,-78294.959896
83.790483,-6513.812290,-3108.864956,-77222.426198
83.793063,-7698.141797,740.205942,-77375.645298
83.795644,16284.530724,-2664.741391,-78294.959896
83.798225,7254.018232,-2960.823768,-80286.808190
83.800805,10658.965565,4589.276840,-77682.083497
83.803386,7846.182985,-7402.059420,-78448.178995
83.805966,-5921.647536,-2812.782580,-77069.207099
83.808547,-5773.606348,3404.947333,-77375.645298
83.811128,10066.800811,148.041188,-77069.207099
83.813708,17172.777854,-5329.482782,-77069.207099
83.816289,2220.617826,2368.659014,-78448.178995
83.818869,148.041188,-296.082377,-77682.083497
83.821450,2960.823768,-7402.059420,-77988.521696
83.824031,-11103.089130,2368.659014,-77069.207099
83.826611,6217.729913,-1036.288319,-79673.931792
83.829192,5921.647536,-2072.576638,-79827.150892
83.831773,-5625.565159,0.000000,-77835.302597
83.834353,5181.441594,2664.741391,-78294.959896
83.836933,14952.160028,-5625.565159,-79980.369991
83.839514,6957.935855,148.041188,-76762.768900
83.842094,8734.430116,1628.453072,-76456.330700
83.844675,2664.741391,-4885.359217,-78907.836294
83.847255,-10510.924376,-1628.453072,-77375.645298
83.849835,2220.617826,-296.082377,-76915.987999
83.852416,12731.542202,-3997.112087,-77682.083497
83.854996,-2812.782580,-3701.029710,-77988.521696
83.857577,-14952.160028,1776.494261,-75077.358804
83.860157,-10066.800811,-3701.029710,-76762.768900
83.862737,-14804.118840,-2220.617826,-79827.150892
83.865318,-7698.141797,4589.276840,-79061.055394
83.867898,12287.418637,-5477.523971,-78907.836294
83.870479,-1924.535449,-3552.988522,-76609.549800
83.873059,-8438.347739,1480.411884,-76149.892501
83.875639,-1924.535449,-4145.153275,-77682.083497
83.878220,-6217.729913,-5773.606348,-78754.617194
83.880800,-1480.411884,296.082377,-78294.959896
83.883381,2664.741391,-296.082377,-78907.836294
83.885961,7254.018232,-5329.482782,-78601.398095
83.888541,-10066.800811,-592.164754,-76609.549800
83.891122,-1480.411884,1184.329507,-75230.577904
83.893702,-5773.606348,-2368.659014,-77682.083497
83.896283,-18357.107362,296.082377,-80593.246390
83.898863,-4737.318029,-740.205942,-76149.892501
83.901443,-2072.576638,-6513.812290,-79827.150892
83.904024,-8882.471304,148.041188,-77835.302597
83.906604,-3552.988522,-296.082377,-75690.235202
83.909185,888.247130,-5033.400406,-76915.987999
83.911765,-14063.912898,-2220.617826,-78754.617194
83.914345,5625.565159,1924.535449,-77835.302597
83.916926,14211.954086,-5625.565159,-78754.617194
83.919506,6365.771101,1036.288319,-76915.987999
83.922087,7846.182985,592.164754,-77069.207099
83.924667,6365.771101,-5921.647536,-76762.768900
83.927247,-7698.141797,-1480.411884,-77528.864398
83.929828,-2664.741391,2368.659014,-80440.027290
83.932408,12287.418637,-3997.112087,-77988.521696
83.934989,6957.935855,-5329.482782,-78141.740796
83.937568,3108.864956,3701.029710,-77682.083497
83.940148,8438.347739,-5921.647536,-78907.836294
83.942728,-6217.729913,-2072.576638,-77682.083497
83.945308,-4737.318029,2516.700203,-75843.454302
83.947888,10362.883188,-1776.494261,-77988.521696
83.950468,9474.636058,-2812.782580,-77988.521696
83.953048,-3108.864956,-148.041188,-77988.521696
83.955628,15692.365970,-444.123565,-77835.302597
83.958208,13767.830521,-3849.070898,-78907.836294
83.960788,2516.700203,3997.112087,-76915.987999
83.963368,8142.265362,-2812.782580,-77682.083497
83.965948,-2960.823768,-4145.153275,-77988.521696
83.968528,-9030.512492,-1776.494261,-77682.083497
83.971108,6809.894666,888.247130,-78294.959896
83.973688,8438.347739,-3997.112087,-78141.740796
83.976268,-13619.789333,-2516.700203,-75843.454302
83.978848,-13915.871710,592.164754,-76915.987999
83.981428,-8586.388927,-4589.276840,-79214.274493
83.984008,-13915.871710,1776.494261,-77069.207099
83.986587,5625.565159,592.164754,-77222.426198
83.989167,10362.883188,-5477.523971,-77069.207099
83.991747,-7994.224174,-4737.318029,-77069.207099
83.994327,-21762.054695,5329.482782,-78754.617194
83.996907,-7994.224174,-6217.729913,-79214.274493
83.999487,-1776.494261,-2812.782580,-78141.740796
84.002067,-1924.535449,1776.494261,-78754.617194
84.004647,9326.594869,-3108.864956,-79061.055394
84.007227,-9326.594869,-2960.823768,-79367.493593
84.009807,-11547.212695,888.247130,-76915.987999
84.012387,888.247130,-4293.194464,-75690.235202
84.014967,-7846.182985,-5921.647536,-76456.330700
84.017547,-16432.571912,2220.617826,-74770.920605
84.020127,-2072.576638,-1184.329507,-77528.864398
84.022707,-1628.453072,-2664.741391,-80440.027290
84.025287,-11251.130318,1332.370696,-77222.426198
84.027867,2812.782580,-1480.411884,-75996.673402
84.030447,-4885.359217,-5329.482782,-77682.083497
84.033027,-4441.235652,1480.411884,-79061.055394
84.035606,16284.530724,-2072.576638,-79827.150892
84.038186,18801.230927,-3849.070898,-80133.589091
84.040728,-2516.700203,-1924.535449,-77375.645298
84.043269,1628.453072,-740.205942,-75383.797003
84.045810,444.123565,-5921.647536,-77835.302597
84.048351,-5477.523971,444.123565,-77682.083497
84.050893,11991.336260,1036.288319,-78294.959896
84.053434,21465.972318,-5181.441594,-77528.864398
84.055975,-1036.288319,296.082377,-75077.358804
84.058516,-8734.430116,-444.123565,-76762.768900
84.061058,6365.771101,-3849.070898,-79061.055394
84.063599,-444.123565,-3997.112087,-78294.959896
84.066140,-6661.853478,2664.741391,-77069.207099
84.068682,14656.077652,-3997.112087,-78294.959896
84.071223,3108.864956,-5625.565159,-81359.341888
84.073764,5181.441594,3997.112087,-76456.330700
84.076305,18505.148550,-5921.647536,-76456.330700
84.078847,4145.153275,-2960.823768,-78294.959896
84.081388,-9474.636058,740.205942,-73698.386908
84.083929,6365.771101,-2368.659014,-77069.207099
84.086470,4293.194464,-5329.482782,-80286.808190
84.089012,148.041188,3108.864956,-77835.302597
84.091553,3701.029710,-740.205942,-77375.645298
84.094094,-9918.759623,-4737.318029,-75996.673402
84.096635,-25167.002028,1184.329507,-76609.549800
84.099177,-2516.700203,-2664.741391,-80133.589091
84.101718,-4737.318029,-2072.576638,-79827.150892
84.104259,888.247130,-2516.700203,-77835.302597
84.106800,1332.370696,-444.123565,-75537.016103
84.109342,-2516.700203,-5477.523971,-76762.768900
84.111883,-21317.931130,740.205942,-76762.768900
84.114424,-5477.523971,592.164754,-78601.398095
84.116966,10510.924376,-5625.565159,-77222.426198
84.119507,-8290.306550,-444.123565,-75077.358804
84.122048,1036.288319,2516.700203,-77375.645298
84.124589,-740.205942,-5477.523971,-78294.959896
84.127131,-10066.800811,-1036.288319,-78601.398095
84.129672,-18949.272115,2072.576638,-77375.645298
84.132213,-1332.370696,-4589.276840,-78141.740796
84.134754,-15988.448347,-2812.782580,-77682.083497
84.137296,-5181.441594,3701.029710,-77222.426198
84.139837,4293.194464,-6661.853478,-79214.274493
84.142385,-5477.523971,-1036.288319,-76762.768900
84.144934,-10658.965565,740.205942,-76762.768900
84.147482,10214.842000,-1184.329507,-75996.673402
84.150031,11991.336260,-5625.565159,-79214.274493
84.152579,5181.441594,4293.194464,-78907.836294
84.155128,15544.324782,-2072.576638,-77988.521696
84.157676,2220.617826,-6217.729913,-76456.330700
84.160225,-11399.171507,0.000000,-75843.454302
84.162773,3108.864956,-148.041188,-79061.055394
84.165322,6809.894666,-4145.153275,-79827.150892
84.167870,9178.553681,1924.535449,-78754.617194
84.170419,6957.935855,1332.370696,-75996.673402
84.172967,7550.100608,-6809.894666,-77682.083497
84.175516,-9622.677246,-1332.370696,-78601.398095
84.178064,-740.205942,1628.453072,-77222.426198
84.180613,12287.418637,-7105.977043,-75843.454302
84.183161,-1628.453072,444.123565,-75077.358804
84.185709,6661.853478,888.247130,-77222.426198
84.188258,17320.819043,-6069.688724,-79214.274493
84.190806,5477.523971,2960.823768,-74617.701505
84.193355,1184.329507,3256.906145,-78754.617194
84.195903,7402.059420,-6661.853478,-77682.083497
84.198452,-8882.471304,-1184.329507,-75996.673402
84.201000,1776.494261,0.000000,-77682.083497
84.203549,10066.800811,444.123565,-78754.617194
84.206097,-1480.411884,-5033.400406,-78907.836294
84.208646,-21762.054695,1332.370696,-76149.892501
84.211194,-10214.842000,-1184.329507,-76149.892501
84.213743,-8734.430116,-4441.235652,-77682.083497
84.216291,-5033.400406,-1332.370696,-78448.178995
84.218840,5921.647536,2664.741391,-76149.892501
84.221388,2812.782580,-7846.182985,-75537.016103
84.223937,-14063.912898,-1776.494261,-76456.330700
84.226485,-15840.407159,4145.153275,-79214.274493
84.229034,1480.411884,-2812.782580,-79520.712692
84.231582,-14804.118840,-2960.823768,-77222.426198
84.234131,7698.141797,2960.823768,-75077.358804
84.236679,-444.123565,-7698.141797,-79980.369991
84.239228,-3849.070898,-1480.411884,-76915.987999
84.241776,-19541.436869,2072.576638,-79214.274493
84.244293,-3849.070898,-2960.823768,-78294.959896
84.246811,-12583.501014,-3552.988522,-77069.207099
84.249328,-12139.377449,2072.576638,-75230.577904
84.251846,6069.688724,-3701.029710,-79827.150892
84.254363,-5033.400406,-2368.659014,-79520.712692
84.256881,-10510.924376,2368.659014,-77835.302597
84.259398,-148.041188,592.164754,-76609.549800
84.261916,12731.542202,-5477.523971,-77375.645298
84.264433,5921.647536,148.041188,-78141.740796
84.266950,16580.613101,2072.576638,-77835.302597
84.269468,5033.400406,-6217.729913,-79214.274493
84.271985,-8734.430116,-148.041188,-75690.235202
84.274503,296.082377,-1480.411884,-76762.768900
84.277020,4145.153275,-4441.235652,-78448.178995
84.279538,4293.194464,1036.288319,-78601.398095
84.282055,11695.253884,2516.700203,-76456.330700
84.284573,10066.800811,-7402.059420,-78754.617194
84.287090,-7254.018232,-1776.494261,-78754.617194
84.289607,-1924.535449,3256.906145,-75537.016103
84.292125,5181.441594,-6513.812290,-77222.426198
84.294642,3552.988522,-1480.411884,-76762.768900
84.297160,3849.070898,1924.535449,-77835.302597
84.299677,15840.407159,-4885.359217,-78754.617194
84.302195,6217.729913,-2664.741391,-76915.987999
84.304712,592.164754,5033.400406,-77069.207099
84.307230,6513.812290,-5033.400406,-78141.740796
84.309747,-2072.576638,-2812.782580,-76149.892501
84.312264,-1776.494261,-296.082377,-77069.207099
84.314782,15248.242405,-1776.494261,-79520.712692
84.317299,-2220.617826,-4885.359217,-79520.712692
84.319817,-14952.160028,3849.070898,-75230.577904
84.322334,-10066.800811,-6513.812290,-78141.740796
84.324852,-5329.482782,-5773.606348,-78141.740796
84.327369,-11251.130318,2220.617826,-78141.740796
84.329886,10066.800811,1184.329507,-78601.398095
84.332404,5625.565159,-6217.729913,-77069.207099
84.334921,-10658.965565,-1036.288319,-75690.235202
84.337439,-13175.665768,2812.782580,-77682.083497
84.339956,-5033.400406,-4293.194464,-80133.589091
84.342474,-3701.029710,-592.164754,-78141.740796
84.345004,-3404.947333,888.247130,-76915.987999
84.347534,12731.542202,-5625.565159,-76915.987999
84.350064,-6809.894666,-4293.194464,-78141.740796
84.352594,-11695.253884,4589.276840,-76609.549800
84.355124,-8438.347739,-6661.853478,-78601.398095
84.357654,-16136.489536,-1184.329507,-77222.426198
84.360184,-12139.377449,2960.823768,-75230.577904
84.362714,4737.318029,-6069.688724,-79214.274493
84.365245,-8882.471304,-444.123565,-79673.931792
84.367775,-6217.729913,1776.494261,-78294.959896
84.370305,2072.576638,-2072.576638,-77375.645298
84.372835,5477.523971,-6217.729913,-77528.864398
84.375365,5773.606348,3108.864956,-78141.740796
84.377895,21910.095883,-2516.700203,-79520.712692
84.380425,6957.935855,-3256.906145,-79673.931792
84.382955,-7846.182985,592.164754,-77069.207099
84.385485,4441.235652,-3256.906145,-77375.645298
84.388015,-2812.782580,-3256.906145,-78754.617194
84.390546,4589.276840,4293.194464,-77835.302597
84.393076,13323.706956,-1924.535449,-75996.673402
84.395606,4293.194464,-5921.647536,-75843.454302
84.398136,-8438.347739,888.247130,-75230.577904
84.400666,-296.082377,-296.082377,-80133.589091
84.403196,7994.224174,-3256.906145,-79367.493593
84.405726,-6217.729913,-148.041188,-77528.864398
84.408256,9918.759623,-1480.411884,-76915.987999
84.410786,14508.036463,-5329.482782,-77528.864398
84.413316,10066.800811,-2516.700203,-77069.207099
84.415847,1480.411884,3108.864956,-76609.549800
84.418377,8142.265362,-4885.359217,-79367.493593
84.420907,-9474.636058,-2220.617826,-77835.302597
84.423437,5181.441594,1480.411884,-76609.549800
84.425967,13175.665768,-4885.359217,-78754.617194
84.428497,-5625.565159,-740.205942,-78141.740796
84.431027,-14508.036463,3701.029710,-76915.987999
84.433557,-11103.089130,-7105.977043,-77375.645298
84.436087,-6809.894666,-5181.441594,-79980.369991
84.438617,-9918.759623,4145.153275,-79367.493593
84.441147,13471.748144,-2664.741391,-78754.617194
84.443678,1924.535449,-3997.112087,-77069.207099
84.446218,-10214.842000,-296.082377,-77528.864398
84.448759,-11547.212695,888.247130,-79520.712692
84.451300,-3701.029710,-4589.276840,-80286.808190
84.453840,-14211.954086,3108.864956,-75690.235202
84.456381,15396.283594,-3256.906145,-77835.302597
84.458922,10658.965565,-9770.718434,-77835.302597
84.461462,-10807.006753,1924.535449,-74464.482406
84.464003,-13175.665768,2220.617826,-77682.083497
84.466544,-7402.059420,-6957.935855,-79061.055394
84.469084,-21169.889941,444.123565,-75383.797003
84.471625,-1480.411884,888.247130,-74770.920605
84.474166,740.205942,-6365.771101,-79980.369991
84.476706,-9030.512492,1776.494261,-78448.178995
84.479247,-2812.782580,-888.247130,-78601.398095
84.481788,2664.741391,-5033.400406,-78141.740796
84.484329,5477.523971,-3701.029710,-77528.864398
84.486869,11991.336260,3256.906145,-77835.302597
84.489410,21021.848753,-5773.606348,-79214.274493
84.491951,-4441.235652,-1184.329507,-78754.617194
84.494491,-4885.359217,740.205942,-76303.111601
84.497032,1036.288319,-5329.482782,-77069.207099
84.499573,-444.123565,-1776.494261,-77222.426198
84.502113,7698.141797,-148.041188,-76762.768900
84.504654,15100.201217,148.041188,-76609.549800
84.507195,-2516.700203,-4145.153275,-77682.083497
84.509735,-9030.512492,1480.411884,-76456.330700
84.512276,3701.029710,-296.082377,-77528.864398
84.514817,3849.070898,-4737.318029,-79061.055394
84.517357,444.123565,0.000000,-78294.959896
84.519898,16432.571912,-1480.411884,-77528.864398
84.522439,16432.571912,-3997.112087,-79980.369991
84.524980,-148.041188,-2960.823768,-78601.398095
84.527520,3997.112087,1776.494261,-77222.426198
84.530061,4145.153275,-7402.059420,-78141.740796
84.532602,-3997.112087,296.082377,-76456.330700
84.535142,10807.006753,-740.205942,-77222.426198
84.537683,6069.688724,-4293.194464,-79367.493593
84.540224,-16136.489536,-592.164754,-75843.454302
84.542764,-15988.448347,740.205942,-75383.797003
84.545305,-13027.624579,-6809.894666,-77375.645298
84.547848,-8290.306550,-1924.535449,-79827.150892
84.550398,2664.741391,2368.659014,-79061.055394
84.552947,10510.924376,-5329.482782,-78601.398095
84.555497,-11399.171507,-4145.153275,-78141.740796
84.558046,-14063.912898,2368.659014,-77375.645298
84.560596,-4293.194464,-4293.194464,-78754.617194
84.563145,1776.494261,-2812.782580,-78294.959896
84.565695,-7846.182985,2220.617826,-75843.454302
84.568244,740.205942,2072.576638,-76609.549800
84.570794,-1628.453072,-6957.935855,-78141.740796
84.573343,-17912.983796,2812.782580,-76303.111601
84.575893,-8438.347739,-1184.329507,-76762.768900
84.578442,-8142.265362,-3108.864956,-77682.083497
84.580992,-13471.748144,1480.411884,-75537.016103
84.583541,3108.864956,-2516.700203,-76609.549800
84.586091,1776.494261,-5773.606348,-80286.808190
84.588640,-16432.571912,3849.070898,-78294.959896
84.591190,-888.247130,592.164754,-74770.920605
84.593739,14656.077652,-6513.812290,-78294.959896
84.596289,8438.347739,-740.205942,-77375.645298
84.598838,15248.242405,1776.494261,-78448.178995
84.601388,9030.512492,-4885.359217,-78141.740796
84.603937,-10066.800811,-2368.659014,-74924.139704
84.606487,-2960.823768,-148.041188,-75843.454302
84.609036,5329.482782,-4293.194464,-79061.055394
84.611586,444.123565,444.123565,-76915.987999
84.614135,3404.947333,2812.782580,-78294.959896
84.616685,592.164754,888.247130,-77835.302597
84.619234,1776.494261,-4441.235652,-77988.521696
84.621784,-7402.059420,1184.329507,-76609.549800
84.624333,444.123565,-1628.453072,-76762.768900
84.626883,12879.583391,-6365.771101,-77835.302597
84.629432,5625.565159,-1184.329507,-77682.083497
84.631982,18801.230927,3108.864956,-77528.864398
84.634531,8142.265362,-5329.482782,-78448.178995
84.637081,-6069.688724,1332.370696,-79214.274493
84.639630,-4737.318029,2812.782580,-75996.673402
84.642180,17024.736666,-6217.729913,-77528.864398
84.644729,2072.576638,-1480.411884,-77069.207099
84.647279,-2516.700203,3552.988522,-77069.207099
84.649835,-10510.924376,-5773.606348,-76609.549800
84.652391,-23982.672521,0.000000,-75843.454302
84.654946,-11843.295072,1036.288319,-76609.549800
84.657502,3256.906145,-4737.318029,-79673.931792
84.660058,9770.718434,-3997.112087,-79061.055394
84.662614,-6513.812290,1776.494261,-77835.302597
84.665170,-4293.194464,-2516.700203,-78907.836294
84.667726,-20725.766376,-4145.153275,-77988.521696
84.670282,-5329.482782,1036.288319,-76149.892501
84.672838,7402.059420,-5033.400406,-78601.398095
84.675393,1924.535449,-3552.988522,-78907.836294
84.677949,-6217.729913,3701.029710,-79061.055394
84.680505,-3997.112087,-5625.565159,-78141.740796
84.683061,-7402.059420,-3552.988522,-78754.617194
84.685617,-22650.301825,-740.205942,-75690.235202
84.688173,-4145.153275,1036.288319,-74617.701505
84.690729,-444.123565,-4589.276840,-77528.864398
84.693284,-4885.359217,296.082377,-80133.589091
84.695840,-5625.565159,148.041188,-77375.645298
84.698396,-3404.947333,-4589.276840,-76762.768900
84.700952,-3701.029710,-148.041188,-76303.111601
84.703508,15988.448347,148.041188,-78448.178995
84.706064,22650.301825,-5773.606348,-77835.302597
84.708620,1924.535449,-1480.411884,-79367.493593
84.711175,-2960.823768,2960.823768,-77222.426198
84.713731,444.123565,-6513.812290,-78294.959896
84.716287,-6217.729913,-1776.494261,-77375.645298
84.718843,4145.153275,3108.864956,-77835.302597
84.721399,19541.436869,-7550.100608,-77682.083497
84.723955,3256.906145,-1332.370696,-78294.959896
84.726511,-5329.482782,1924.535449,-78294.959896
84.729066,3256.906145,-1036.288319,-78294.959896
84.731622,296.082377,-3552.988522,-80133.589091
84.734178,1628.453072,-592.164754,-78294.959896
84.736734,18505.148550,-3701.029710,-78141.740796
84.739290,17172.777854,-2960.823768,-78907.836294
84.741846,2220.617826,3404.947333,-77528.864398
84.744402,6957.935855,-2812.782580,-77069.207099
84.746958,-3404.947333,-4589.276840,-77069.207099
84.749513,-2072.576638,2072.576638,-77069.207099
84.752075,9770.718434,1628.453072,-75537.016103
84.754636,3404.947333,-5033.400406,-79673.931792
84.757197,-18949.272115,296.082377,-77835.302597
84.759758,-16580.613101,740.205942,-75996.673402
84.762319,-10658.965565,-4293.194464,-77222.426198
84.764881,-11399.171507,1036.288319,-77835.302597
84.767442,8734.430116,-148.041188,-77375.645298
84.770003,7846.182985,-5329.482782,-78601.398095
84.772564,-7254.018232,-3256.906145,-77528.864398
84.775125,-19689.478057,4589.276840,-78601.398095
84.777687,-3701.029710,-4293.194464,-79367.493593
84.780248,740.205942,-444.123565,-75690.235202
84.782809,-2220.617826,-444.123565,-77375.645298
84.785370,6661.853478,-2516.700203,-76915.987999
84.787931,-11695.253884,-3108.864956,-79827.150892
84.790493,-15988.448347,2812.782580,-77375.645298
84.793054,-10066.800811,740.205942,-77682.083497
84.795615,-6069.688724,-4737.318029,-77375.645298
84.798176,-10362.883188,1776.494261,-75537.016103
84.800737,7550.100608,-1628.453072,-77835.302597
84.803299,-7994.224174,-4737.318029,-80286.808190
84.805860,-14656.077652,2368.659014,-79367.493593
84.808421,8142.265362,-2072.576638,-76609.549800
84.810982,12139.377449,-6069.688724,-78754.617194
84.813543,9622.677246,2812.782580,-79367.493593
84.816105,10658.965565,1184.329507,-77835.302597
84.818666,2960.823768,-6069.688724,-77988.521696
84.821227,-11547.212695,-592.164754,-76762.768900
84.823788,-1776.494261,0.000000,-78448.178995
84.826349,10510.924376,-3552.988522,-77222.426198
84.828911,3849.070898,-1776.494261,-76456.330700
84.831472,7550.100608,0.000000,-77222.426198
84.834033,4293.194464,-4441.235652,-78294.959896
84.836594,-6809.894666,1332.370696,-75996.673402
84.839155,592.164754,4145.153275,-79367.493593
84.841717,15988.448347,-4589.276840,-78294.959896
84.844278,9474.636058,-4441.235652,-77682.083497
84.846839,12583.501014,1628.453072,-77682.083497
84.849400,13471.748144,-3701.029710,-77835.302597
84.851961,-3997.112087,-2368.659014,-78601.398095
84.854527,-6809.894666,1332.370696,-77375.645298
84.857092,11991.336260,-6365.771101,-78294.959896
84.859658,4737.318029,-1332.370696,-77682.083497
84.862224,-10955.047942,296.082377,-78448.178995
84.864789,-7550.100608,-888.247130,-76609.549800
84.867355,-20725.766376,-4737.318029,-76762.768900
84.869920,-17764.942608,1332.370696,-77682.083497
84.872486,3256.906145,-1036.288319,-79980.369991
84.875051,11251.130318,-2812.782580,-79367.493593
84.877617,-4737.318029,-444.123565,-77835.302597
84.880183,592.164754,296.082377,-76762.768900
84.882748,-21910.095883,-4441.235652,-78448.178995
84.885314,-12287.418637,888.247130,-78907.836294
84.887879,3404.947333,1184.329507,-77988.521696
84.890445,740.205942,-6661.853478,-75230.577904
84.893010,-444.123565,-1628.453072,-74464.482406
84.895576,-10807.006753,296.082377,-79367.493593
84.898141,-9326.594869,-3552.988522,-80133.589091
84.900707,-25315.043216,-2072.576638,-76762.768900
84.903273,-3108.864956,592.164754,-74924.139704
84.905838,-592.164754,-4145.153275,-76149.892501
84.908404,-2072.576638,-3404.947333,-75843.454302
84.910969,-15100.201217,1036.288319,-78294.959896
84.913535,4885.359217,-3552.988522,-79367.493593
84.916100,2664.741391,-3108.864956,-79061.055394
84.918666,11251.130318,1628.453072,-77835.302597
84.921232,20577.725188,-4293.194464,-78448.178995
84.923797,-2368.659014,-1924.535449,-79214.274493
84.926363,-2072.576638,2516.700203,-77222.426198
84.928928,-740.205942,-1036.288319,-77835.302597
84.931494,7550.100608,-4441.235652,-79673.931792
84.934059,4737.318029,2220.617826,-77682.083497
84.936625,16580.613101,-1776.494261,-76456.330700
84.939191,592.164754,-6217.729913,-77375.645298
84.941756,-7846.182985,2368.659014,-76149.892501
84.944322,1332.370696,148.041188,-78294.959896
84.946887,7846.182985,-4441.235652,-78448.178995
84.949453,-740.205942,888.247130,-77375.645298
84.952018,15396.283594,4145.153275,-76303.111601
84.954584,16284.530724,-7105.977043,-78907.836294
84.957152,-4737.318029,1480.411884,-77375.645298
84.959720,-3256.906145,0.000000,-78907.836294
84.962289,6809.894666,-4441.235652,-78141.740796
84.964857,2664.741391,-1628.453072,-76762.768900
84.967425,4293.194464,1628.453072,-78141.740796
84.969993,-4441.235652,-5773.606348,-78601.398095
84.972562,-23834.631332,-592.164754,-75690.235202
84.975130,-19541.436869,1628.453072,-78294.959896
84.977698,3552.988522,-1332.370696,-79367.493593
84.980266,2664.741391,-5329.482782,-79061.055394
84.982835,2368.659014,2220.617826,-76762.768900
84.985403,7105.977043,-4441.235652,-75537.016103
84.987971,-19245.354492,-1036.288319,-78448.178995
84.990539,-17764.942608,3701.029710,-78754.617194
84.993108,8734.430116,-2960.823768,-76762.768900
84.995676,296.082377,-4145.153275,-77069.207099
84.998244,-8438.347739,-4441.235652,-76149.892501
85.000812,-2812.782580,1184.329507,-75230.577904
85.003381,-12139.377449,-4145.153275,-79520.712692
85.005949,-25018.960840,1184.329507,-78601.398095
85.008517,-4737.318029,-888.247130,-76609.549800
85.011085,444.123565,-5773.606348,-75843.454302
85.013654,-4737.318029,2072.576638,-77375.645298
85.016222,-1924.535449,-2072.576638,-79214.274493
85.018790,4441.235652,-5329.482782,-77069.207099
85.021358,-592.164754,-2516.700203,-77988.521696
85.023927,13323.706956,3108.864956,-77222.426198
85.026495,19985.560434,-6513.812290,-77835.302597
85.029063,1036.288319,-1184.329507,-76609.549800
85.031631,-9030.512492,1480.411884,-76915.987999
85.034200,3108.864956,-3404.947333,-77988.521696
85.036768,6217.729913,-2812.782580,-79367.493593
85.039336,1332.370696,2960.823768,-78907.836294
85.041904,9918.759623,592.164754,-77528.864398
85.044473,3256.906145,-6957.935855,-78448.178995
85.047041,-8142.265362,1332.370696,-75690.235202
85.049609,296.082377,-1480.411884,-77682.083497
85.052177,8882.471304,-4293.194464,-77528.864398
85.054746,4589.276840,-3256.906145,-77682.083497
85.057314,20429.683999,888.247130,-77835.302597
85.059884,15396.283594,-4145.153275,-76915.987999
85.062455,-4737.318029,296.082377,-78754.617194
85.065025,-9622.677246,2960.823768,-77682.083497
85.067596,14063.912898,-4293.194464,-78141.740796
85.070166,4145.153275,-3404.947333,-78141.740796
85.072737,-4589.276840,2516.700203,-78601.398095
85.075307,-5921.647536,-5329.482782,-77375.645298
85.077878,-25907.207970,-2516.700203,-76303.111601
85.080449,-13767.830521,2368.659014,-77375.645298
85.083019,1628.453072,-4441.235652,-79980.369991
85.085590,11103.089130,-3849.070898,-78601.398095
85.088160,-3256.906145,-1480.411884,-76915.987999
85.090731,-8142.265362,740.205942,-77528.864398
85.093301,-15692.365970,-4737.318029,-78754.617194
85.095872,-12583.501014,1924.535449,-77528.864398
85.098442,6217.729913,1184.329507,-77682.083497
85.101013,-888.247130,-5773.606348,-79061.055394
85.103583,-8586.388927,-148.041188,-76149.892501
85.106154,-3256.906145,-3108.864956,-77222.426198
85.108724,-12287.418637,-2220.617826,-78448.178995
85.111295,-20577.725188,-2516.700203,-78294.959896
85.113865,-3849.070898,4293.194464,-77682.083497
85.116436,3849.070898,-6365.771101,-79367.493593
85.119006,-6957.935855,1036.288319,-77682.083497
85.121577,-7994.224174,-444.123565,-77988.521696
85.124148,8290.306550,-5329.482782,-77222.426198
85.126718,-444.123565,-1776.494261,-77835.302597
85.129289,18357.107362,2664.741391,-77835.302597
85.131859,15544.324782,-3552.988522,-78141.740796
85.134430,2220.617826,-2664.741391,-78448.178995
85.137000,-11399.171507,1776.494261,-77682.083497
85.139571,6365.771101,-4293.194464,-78294.959896
85.142143,-1332.370696,-4293.194464,-77375.645298
85.144716,13619.789333,3256.906145,-77682.083497
85.147289,8290.306550,-3997.112087,-78907.836294
85.149861,-3701.029710,-1480.411884,-77835.302597
85.152434,-2960.823768,1480.411884,-77988.521696
85.155007,296.082377,2072.576638,-79061.055394
85.157579,13027.624579,-6069.688724,-78448.178995
85.160152,7254.018232,444.123565,-76303.111601
85.162725,20281.642811,-592.164754,-77682.083497
85.165298,5181.441594,-3552.988522,-78754.617194
85.167870,-7105.977043,296.082377,-78754.617194
85.170443,2664.741391,-1036.288319,-77222.426198
85.173016,12435.459826,-4293.194464,-77375.645298
85.175588,-2960.823768,1184.329507,-79214.274493
85.178161,-9030.512492,2220.617826,-77069.207099
85.180734,-10066.800811,-6809.894666,-77222.426198
85.183306,-22058.137072,-1184.329507,-76456.330700
85.185879,-7254.018232,3849.070898,-77988.521696
85.188452,6661.853478,-5329.482782,-79061.055394
85.191024,-740.205942,-3256.906145,-76762.768900
85.193597,-5921.647536,2516.700203,-75077.358804
85.196170,-2368.659014,-6365.771101,-78294.959896
85.198742,-3404.947333,-3997.112087,-78754.617194
85.201315,-12583.501014,2960.823768,-77988.521696
85.203888,5921.647536,-592.164754,-79673.931792
85.206461,-1628.453072,-7254.018232,-78141.740796
85.209033,-12583.501014,592.164754,-76609.549800
85.211606,-7254.018232,-2072.576638,-77375.645298
85.214179,-18061.024985,-3404.947333,-79214.274493
85.216751,-17172.777854,3701.029710,-76915.987999
85.219324,6217.729913,-6365.771101,-77682.083497
85.221897,4145.153275,-4589.276840,-78448.178995
85.224469,-13027.624579,-888.247130,-76456.330700
85.227042,2812.782580,-444.123565,-76456.330700
85.229615,14359.995275,-4441.235652,-78907.836294
85.232187,3256.906145,1776.494261,-77375.645298
85.234760,15248.242405,444.123565,-77069.207099
85.237333,7846.182985,-6513.812290,-79367.493593
85.239905,-7698.141797,1036.288319,-77222.426198
85.242478,-1184.329507,444.123565,-78754.617194
85.245052,15248.242405,-5625.565159,-79673.931792
85.247625,3256.906145,-2072.576638,-77988.521696
85.250199,2072.576638,2072.576638,-77069.207099
85.252772,6069.688724,-6957.935855,-77069.207099
85.255346,-3849.070898,-3404.947333,-77988.521696
85.257919,1776.494261,5329.482782,-79367.493593
85.260493,10214.842000,-7105.977043,-79980.369991
85.263066,8142.265362,-888.247130,-76609.549800
85.265640,6513.812290,888.247130,-78601.398095
85.268213,11547.212695,592.164754,-75690.235202
85.270787,-740.205942,-5181.441594,-76456.330700
85.273360,-6809.894666,2220.617826,-77682.083497
85.275934,15396.283594,-1480.411884,-80286.808190
85.278507,1776.494261,-3849.070898,-79520.712692
85.281081,-15692.365970,1332.370696,-76915.987999
85.283654,-8142.265362,-3552.988522,-77222.426198
85.286228,-16728.654289,-3701.029710,-79214.274493
85.288802,-15396.283594,-444.123565,-76456.330700
85.291375,4885.359217,740.205942,-79673.931792
85.293949,8142.265362,-6217.729913,-78141.740796
85.296522,-9918.759623,-1776.494261,-74617.701505
85.299096,-9326.594869,2368.659014,-76149.892501
85.301669,-8734.430116,-5181.441594,-78141.740796
85.304243,-9178.553681,2368.659014,-77222.426198
85.306816,6957.935855,-1036.288319,-77222.426198
85.309390,-1628.453072,-5773.606348,-77222.426198
85.311963,-11103.089130,-3701.029710,-77682.083497
85.314537,-21614.013506,4589.276840,-78294.959896
85.317110,-8438.347739,-4737.318029,-77835.302597
85.319684,-14952.160028,-2368.659014,-78141.740796
85.322257,-3256.906145,740.205942,-77835.302597
85.324831,5329.482782,-3849.070898,-77835.302597
85.327404,-10362.883188,-3701.029710,-78754.617194
85.329978,1036.288319,3552.988522,-76915.987999
85.332551,15988.448347,-7254.018232,-77835.302597
85.335125,16580.613101,-3997.112087,-78601.398095
85.337698,444.123565,296.082377,-77222.426198
85.340272,10807.006753,-1332.370696,-77988.521696
85.342845,148.041188,-4145.153275,-77682.083497
85.345419,-6217.729913,3108.864956,-78448.178995
85.347993,9326.594869,-740.205942,-78754.617194
85.350567,9918.759623,-4885.359217,-78754.617194
85.353142,-740.205942,592.164754,-77988.521696
85.355716,-5477.523971,0.000000,-77222.426198
85.358290,12139.377449,-4589.276840,-76915.987999
85.360864,-4737.318029,-2368.659014,-77222.426198
85.363438,8586.388927,3552.988522,-77069.207099
85.366013,21021.848753,-7550.100608,-78448.178995
85.368587,7994.224174,-1036.288319,-76915.987999
85.371161,5033.400406,1776.494261,-77069.207099
85.373735,2812.782580,-5181.441594,-79520.712692
85.376309,-4885.359217,-2072.576638,-77682.083497
85.378884,2220.617826,2960.823768,-77069.207099
85.381458,4293.194464,-3108.864956,-78448.178995
85.384032,-13915.871710,-4589.276840,-77222.426198
85.386606,-23538.548956,2368.659014,-75690.235202
85.389180,-3108.864956,-3849.070898,-77988.521696
85.391755,-9918.759623,-444.123565,-80286.808190
85.394329,888.247130,2664.741391,-78601.398095
85.396903,9770.718434,-6365.771101,-78294.959896
85.399477,-16136.489536,-1924.535449,-77222.426198
85.402052,-19837.519246,0.000000,-78754.617194
85.404626,-6957.935855,148.041188,-78448.178995
85.407200,5773.606348,-2220.617826,-77528.864398
85.409774,-8438.347739,-3552.988522,-77375.645298
85.412348,2812.782580,1184.329507,-76762.768900
85.414923,-8438.347739,-4145.153275,-78907.836294
85.417497,-24574.837274,1480.411884,-77682.083497
85.420071,-7846.182985,1480.411884,-75077.358804
85.422645,-5773.606348,-7402.059420,-78141.740796
85.425219,-3552.988522,592.164754,-77069.207099
85.427794,-8290.306550,1628.453072,-76762.768900
85.430368,8142.265362,-6513.812290,-79214.274493
85.432942,1924.535449,-2664.741391,-76915.987999
85.435516,11843.295072,3997.112087,-77835.302597
85.438090,15840.407159,-6365.771101,-77528.864398
85.440665,-2960.823768,-2960.823768,-77069.207099
85.443239,2812.782580,1184.329507,-76609.549800
85.445813,1332.370696,-6217.729913,-78907.836294
85.448387,9178.553681,-5329.482782,-79367.493593
85.450928,8586.388927,-1036.288319,-76303.111601
85.453469,1036.288319,-1036.288319,-77069.207099
85.456010,6809.894666,-3552.988522,-79061.055394
85.458550,-8142.265362,-3404.947333,-77375.645298
85.461091,7550.100608,2960.823768,-75690.235202
85.463632,11251.130318,-4885.359217,-77835.302597
85.466173,8882.471304,-888.247130,-78601.398095
85.468713,15840.407159,888.247130,-75843.454302
85.471254,12879.583391,-5921.647536,-78907.836294
85.473795,-7254.018232,-1036.288319,-77682.083497
85.476336,2516.700203,148.041188,-77222.426198
85.478876,12879.583391,-3849.070898,-77682.083497
85.481417,-8438.347739,-3108.864956,-79367.493593
85.483958,-15988.448347,3108.864956,-76149.892501
85.486499,-10658.965565,-7994.224174,-77835.302597
85.489039,-17468.860231,444.123565,-76303.111601
85.491580,-10362.883188,1036.288319,-77528.864398
85.494121,12731.542202,-888.247130,-77222.426198
85.496662,6809.894666,-6365.771101,-78294.959896
85.499202,-18209.066173,3256.906145,-76303.111601
85.501743,-11991.336260,-2368.659014,-77835.302597
85.504284,3108.864956,-2812.782580,-77835.302597
85.506825,-6661.853478,-296.082377,-79673.931792
85.509366,4441.235652,1036.288319,-78907.836294
85.511906,-5773.606348,-6217.729913,-78601.398095
85.514447,-18949.272115,-2220.617826,-79673.931792
85.516988,-19689.478057,4293.194464,-76149.892501
85.519529,-4145.153275,-5773.606348,-76609.549800
85.522069,-11991.336260,-2960.823768,-77069.207099
85.524610,2960.823768,2812.782580,-77682.083497
85.527151,-2516.700203,-5625.565159,-79673.931792
85.529692,-3108.864956,-1332.370696,-75843.454302
85.532232,11991.336260,888.247130,-75230.577904
85.534773,17320.819043,-3256.906145,-79061.055394
85.537314,3256.906145,-3404.947333,-78754.617194
85.539855,1036.288319,1924.535449,-77682.083497
85.542395,5181.441594,-5033.400406,-78448.178995
85.544936,-6217.729913,-444.123565,-77988.521696
85.547477,8290.306550,296.082377,-77988.521696
85.550018,14211.954086,-5033.400406,-78754.617194
85.552553,-888.247130,-2516.700203,-77528.864398
85.555101,-1332.370696,740.205942,-77222.426198
85.557649,1036.288319,-3849.070898,-78141.740796
85.560197,9326.594869,-4885.359217,-79214.274493
85.562745,2072.576638,1924.535449,-77528.864398
85.565292,21614.013506,-1628.453072,-78141.740796
85.567840,11843.295072,-3404.947333,-77528.864398
85.570388,-3404.947333,-888.247130,-77988.521696
85.572936,5773.606348,1776.494261,-75690.235202
85.575483,4441.235652,-6513.812290,-79673.931792
85.578031,148.041188,3256.906145,-77682.083497
85.580579,1036.288319,-2664.741391,-77835.302597
85.583127,-9178.553681,-5477.523971,-78294.959896
85.585675,-24130.713709,-2516.700203,-76456.330700
85.588222,-7698.141797,3552.988522,-76456.330700
85.590770,0.000000,-5625.565159,-79520.712692
85.593318,-296.082377,-1184.329507,-78294.959896
85.595866,2220.617826,-148.041188,-77069.207099
85.598414,-3997.112087,-5477.523971,-77375.645298
85.600961,-22058.137072,148.041188,-76149.892501
85.603509,-4145.153275,3404.947333,-76456.330700
85.606057,11547.212695,-5329.482782,-78141.740796
85.608605,-1036.288319,-2368.659014,-77682.083497
85.611153,-14211.954086,1628.453072,-77682.083497
85.613700,-6957.935855,-4885.359217,-79367.493593
85.616248,-22354.219448,0.000000,-77682.083497
85.618796,-13767.830521,2072.576638,-77682.083497
85.621344,3701.029710,-4145.153275,-79214.274493
85.623891,-5181.441594,-2960.823768,-80133.589091
85.626439,-13323.706956,888.247130,-78448.178995
85.628987,14359.995275,-2072.576638,-77222.426198
85.631535,12879.583391,-4737.318029,-77682.083497
85.634083,8586.388927,1184.329507,-76915.987999
85.636630,8734.430116,-148.041188,-78754.617194
85.639178,6513.812290,-6217.729913,-79367.493593
85.641726,-10066.800811,888.247130,-76456.330700
85.644274,5625.565159,296.082377,-77375.645298
85.646822,7105.977043,-5625.565159,-78448.178995
85.649369,-2812.782580,-1184.329507,-78294.959896
85.651917,-2072.576638,2220.617826,-74924.139704
85.654471,5181.441594,-7254.018232,-78754.617194
85.657025,-2812.782580,1480.411884,-78601.398095
85.659579,6957.935855,1628.453072,-79673.931792
85.662133,18801.230927,-3997.112087,-78448.178995
85.664686,6365.771101,-2960.823768,-76303.111601
85.667240,8734.430116,1036.288319,-76609.549800
85.669794,5921.647536,-5921.647536,-78601.398095
85.672348,-296.082377,-5773.606348,-77835.302597
85.674902,3108.864956,2516.700203,-77375.645298
85.677456,4293.194464,-2812.782580,-81512.560987
85.680010,-11695.253884,-2960.823768,-78601.398095
85.682564,-23390.507767,296.082377,-75843.454302
85.685117,-3552.988522,-3849.070898,-75996.673402
85.687671,-10807.006753,-1628.453072,-78448.178995
85.690225,-888.247130,2812.782580,-79980.369991
85.692779,7550.100608,-5921.647536,-77375.645298
85.695333,-5625.565159,-3256.906145,-78754.617194
85.697887,-17912.983796,-148.041188,-76915.987999
85.700441,-6069.688724,148.041188,-76609.549800
85.702995,7402.059420,-3404.947333,-78141.740796
85.705548,-12287.418637,-1480.411884,-79520.712692
85.708102,1924.535449,592.164754,-75843.454302
85.710656,-10658.965565,-4293.194464,-78141.740796
85.713210,-22650.301825,296.082377,-77375.645298
85.715764,-14359.995275,2812.782580,-75537.016103
85.718318,2220.617826,-5477.523971,-77682.083497
85.720872,-3701.029710,-2072.576638,-79367.493593
85.723425,-6365.771101,3404.947333,-77528.864398
85.725979,10807.006753,-6809.894666,-77375.645298
85.728533,3849.070898,-1628.453072,-77835.302597
85.731087,13915.871710,6217.729913,-77069.207099
85.733641,10955.047942,-6661.853478,-79520.712692
85.736195,-2812.782580,-6217.729913,-79061.055394
85.738749,-8438.347739,2368.659014,-77682.083497
85.741303,8882.471304,-2072.576638,-77069.207099
85.743856,5921.647536,-3552.988522,-78294.959896
85.746410,8142.265362,1184.329507,-78294.959896
85.748964,4145.153275,-4885.359217,-78754.617194
85.751518,-888.247130,-1628.453072,-75996.673402
85.754072,-4737.318029,1628.453072,-78141.740796
85.756630,11547.212695,-1924.535449,-79061.055394
85.759188,16876.695478,-5625.565159,-76456.330700
85.761746,10066.800811,740.205942,-78601.398095
85.764304,12139.377449,1036.288319,-77835.302597
85.766862,3849.070898,-4441.235652,-77835.302597
85.769420,-5773.606348,-1036.288319,-75843.454302
85.771978,10510.924376,740.205942,-76609.549800
85.774536,3404.947333,-5477.523971,-80440.027290
85.777094,-16284.530724,2664.741391,-77682.083497
85.779652,-13767.830521,-2072.576638,-77069.207099
85.782210,-3997.112087,-5477.523971,-76762.768900
85.784768,-10510.924376,-888.247130,-76915.987999
85.787326,148.041188,2516.700203,-76456.330700
85.789884,5329.482782,-6069.688724,-78601.398095
85.792442,-5773.606348,-5329.482782,-77069.207099
85.795000,-16580.613101,4145.153275,-75996.673402
85.797558,1924.535449,-3849.070898,-78294.959896
85.800116,-4293.194464,-3701.029710,-78754.617194
85.802674,-2960.823768,5181.441594,-75996.673402
85.805232,3552.988522,-2812.782580,-78448.178995
85.807790,-11399.171507,-5773.606348,-79980.369991
85.810348,-28127.825796,4293.194464,-76609.549800
85.812906,-5625.565159,-3849.070898,-76456.330700
85.815464,-6809.894666,-2516.700203,-78448.178995
85.818022,-6217.729913,2220.617826,-78448.178995
85.820580,2368.659014,-3552.988522,-78448.178995
85.823138,6661.853478,-3552.988522,-77682.083497
85.825696,4885.359217,1036.288319,-77682.083497
85.828254,18949.272115,2072.576638,-76303.111601
85.830812,6513.812290,-5181.441594,-78907.836294
85.833370,-4293.194464,-148.041188,-77069.207099
85.835928,592.164754,-740.205942,-78754.617194
85.838485,9178.553681,-2072.576638,-77528.864398
85.841043,-3997.112087,444.123565,-78907.836294
85.843601,14063.912898,-1036.288319,-77988.521696
85.846159,1924.535449,-5477.523971,-77069.207099
85.848717,-6365.771101,1036.288319,-77222.426198
85.851275,4737.318029,444.123565,-78601.398095
85.853833,11251.130318,-3404.947333,-77835.302597
85.856391,10807.006753,-2516.700203,-78141.740796
85.858953,11843.295072,2072.576638,-79061.055394
85.861514,14359.995275,-5625.565159,-77528.864398
85.864076,-6069.688724,-1332.370696,-77069.207099
85.866637,-2664.741391,1924.535449,-76762.768900
85.869198,12583.501014,-2368.659014,-77835.302597
85.871760,-5625.565159,-3404.947333,-79061.055394
85.874321,-22946.384202,-2220.617826,-77988.521696
85.876883,-17468.860231,1628.453072,-77835.302597
85.879444,-1776.494261,-4737.318029,-78294.959896
85.882006,-11103.089130,-888.247130,-77682.083497
85.884567,6365.771101,592.164754,-77375.645298
85.887128,9622.677246,-7254.018232,-77988.521696
85.889690,-15692.365970,888.247130,-76456.330700
85.892251,-15544.324782,2220.617826,-77069.207099
85.894813,9178.553681,-1332.370696,-79214.274493
85.897374,-6069.688724,-5033.400406,-80286.808190
85.899935,-8882.471304,4293.194464,-75843.454302
85.902497,-2516.700203,-5625.565159,-77528.864398
85.905058,-17468.860231,-1184.329507,-78294.959896
85.907620,-19985.560434,2072.576638,-77375.645298
85.910181,-2368.659014,-5181.441594,-77682.083497
85.912742,-3849.070898,-2960.823768,-76609.549800
85.915304,-8734.430116,3108.864956,-77835.302597
85.917865,10510.924376,-1184.329507,-77375.645298
85.920427,14211.954086,-4441.235652,-78601.398095
85.922988,5329.482782,1776.494261,-77682.083497
85.925549,14508.036463,0.000000,-77988.521696
85.928111,4145.153275,-6957.935855,-77682.083497
85.930672,-6365.771101,592.164754,-77222.426198
85.933234,4441.235652,-592.164754,-78141.740796
85.935795,10658.965565,-2368.659014,-78907.836294
85.938357,2960.823768,148.041188,-77682.083497
85.940918,7550.100608,2220.617826,-75996.673402
85.943479,2368.659014,-5921.647536,-79827.150892
85.946041,-3256.906145,1332.370696,-77988.521696
85.948602,2960.823768,1332.370696,-78294.959896
85.951164,20725.766376,-6069.688724,-75230.577904
85.953725,7254.018232,-3701.029710,-77222.426198
85.956286,10658.965565,2368.659014,-79827.150892
85.958848,4441.235652,-3849.070898,-79673.931792
85.961413,1924.535449,-4441.235652,-79061.055394
85.963977,1036.288319,1628.453072,-78141.740796
85.966542,2664.741391,-4441.235652,-78448.178995
85.969107,-15248.242405,-2664.741391,-77682.083497
85.971671,-23982.672521,1776.494261,-77375.645298
85.974236,-2220.617826,-3108.864956,-78907.836294
85.976801,-7846.182985,-2368.659014,-78448.178995
85.979365,-444.123565,2664.741391,-77222.426198
85.981930,11103.089130,-7105.977043,-76456.330700
85.984495,-7698.141797,-7846.182985,-75996.673402
85.987059,-18061.024985,2812.782580,-76915.987999
85.989624,592.164754,444.123565,-80899.684589
85.992189,-444.123565,-1480.411884,-79980.369991
85.994753,-2220.617826,-3997.112087,-76609.549800
85.997318,-5329.482782,740.205942,-74158.044206
85.999883,-13619.789333,-4885.359217,-79214.274493
86.002447,-25018.960840,2220.617826,-77988.521696
86.005012,-6513.812290,0.000000,-77682.083497
86.007577,5773.606348,-6365.771101,-77988.521696
86.010142,-10658.965565,-2516.700203,-78448.178995
86.012706,1924.535449,2516.700203,-75843.454302
86.015271,14804.118840,-5329.482782,-76456.330700
86.017836,9770.718434,-1036.288319,-78601.398095
86.020400,8586.388927,4441.235652,-77835.302597
86.022965,9030.512492,-8438.347739,-78754.617194
86.025530,-6957.935855,-2072.576638,-75690.235202
86.028094,-1924.535449,888.247130,-77069.207099
86.030659,6217.729913,740.205942,-78907.836294
86.033224,12879.583391,-7105.977043,-78141.740796
86.035788,-5181.441594,296.082377,-76456.330700
86.038353,7846.182985,-1628.453072,-77682.083497
86.040918,0.000000,-5477.523971,-80593.246390
86.043482,-4737.318029,6365.771101,-79214.274493
86.046047,18061.024985,-4589.276840,-78907.836294
86.048612,18209.066173,-2368.659014,-76149.892501
86.051177,5181.441594,-1776.494261,-77069.207099
86.053741,2516.700203,2664.741391,-75690.235202
86.056306,3701.029710,-6365.771101,-78141.740796
86.058871,-592.164754,2812.782580,-76149.892501
86.061435,-296.082377,-2368.659014,-79367.493593
86.063970,-5773.606348,-3108.864956,-77835.302597
86.066504,-28719.990550,-1184.329507,-77222.426198
86.069038,-6217.729913,148.041188,-77222.426198
86.071572,-5477.523971,-3256.906145,-78294.959896
86.074107,-3108.864956,-2072.576638,-78141.740796
86.076641,-1332.370696,1184.329507,-77069.207099
86.079175,2960.823768,-6365.771101,-77682.083497
86.081709,-20281.642811,444.123565,-76915.987999
86.084244,-6513.812290,2368.659014,-78141.740796
86.086778,9326.594869,-3849.070898,-77528.864398
86.089312,-11251.130318,-3849.070898,-76456.330700
86.091846,-6661.853478,1776.494261,-75843.454302
86.094381,-10066.800811,-4885.359217,-78448.178995
86.096915,-14508.036463,-4145.153275,-78907.836294
86.099449,-21465.972318,2516.700203,-77835.302597
86.101983,9918.759623,-2220.617826,-78141.740796
86.104518,-4441.235652,-4885.359217,-79214.274493
86.107052,-2960.823768,1924.535449,-77682.083497
86.109586,18653.189738,-2664.741391,-79367.493593
86.112120,13915.871710,-4589.276840,-79214.274493
86.114655,2072.576638,4737.318029,-76762.768900
86.117189,9622.677246,-5329.482782,-77988.521696
86.119723,4589.276840,-6365.771101,-78294.959896
86.122257,-2516.700203,1332.370696,-77069.207099
86.124792,1628.453072,3701.029710,-78141.740796
86.127326,15840.407159,-7402.059420,-77835.302597
86.129860,-5033.400406,-1776.494261,-74924.139704
86.132394,2072.576638,2368.659014,-77375.645298
86.134929,-296.082377,-7846.182985,-79980.369991
86.137463,-2960.823768,3108.864956,-77682.083497
86.139997,14508.036463,-1036.288319,-76456.330700
86.142531,23390.507767,-6513.812290,-77682.083497
86.145066,4145.153275,-2664.741391,-77069.207099
86.147600,-1628.453072,2072.576638,-78294.959896
86.150134,7698.141797,-5329.482782,-79367.493593
86.152668,1332.370696,-1628.453072,-78601.398095
86.155203,-9474.636058,2072.576638,-75996.673402
86.157737,-6217.729913,-6365.771101,-78448.178995
86.160271,-25611.125593,-2516.700203,-77069.207099
86.162806,-9622.677246,1332.370696,-76762.768900
86.165348,5033.400406,740.205942,-78907.836294
86.167891,5625.565159,-5329.482782,-79367.493593
86.170433,-14063.912898,1332.370696,-76915.987999
86.172976,740.205942,-2072.576638,-77069.207099
86.175518,-12287.418637,-2516.700203,-78907.836294
86.178061,-7994.224174,3256.906145,-79214.274493
86.180603,3701.029710,-2664.741391,-79214.274493
86.183146,-3108.864956,-4145.153275,-77069.207099
86.185688,-19097.313304,-3108.864956,-77682.083497
86.188231,-18357.107362,3404.947333,-77375.645298
86.190773,-10066.800811,-5625.565159,-78141.740796
86.193316,-14063.912898,-1184.329507,-77682.083497
86.195858,1036.288319,2220.617826,-78601.398095
86.198401,444.123565,-7105.977043,-78907.836294
86.200943,2368.659014,-740.205942,-75996.673402
86.203486,12731.542202,-148.041188,-77375.645298
86.206028,20281.642811,-2072.576638,-77682.083497
86.208571,-1036.288319,-3997.112087,-78448.178995
86.211113,-3701.029710,2664.741391,-76762.768900
86.213656,3849.070898,-6957.935855,-79520.712692
86.216198,-6069.688724,592.164754,-77682.083497
86.218741,2516.700203,1184.329507,-78141.740796
86.221283,19097.313304,-6809.894666,-77988.521696
86.223826,-5625.565159,-2960.823768,-79214.274493
86.226368,-2220.617826,2664.741391,-79061.055394
86.228911,6513.812290,296.082377,-80593.246390
86.231453,17024.736666,-3256.906145,-80286.808190
86.233996,8142.265362,-888.247130,-77222.426198
86.236538,18505.148550,0.000000,-75230.577904
86.239081,4885.359217,-4589.276840,-77835.302597
86.241623,-5921.647536,148.041188,-79061.055394
86.244166,12731.542202,888.247130,-77988.521696
86.246709,1924.535449,-7105.977043,-79214.274493
86.249251,-19541.436869,3997.112087,-75690.235202
86.251794,-20725.766376,740.205942,-77069.207099
86.254336,-3404.947333,-5773.606348,-77528.864398
86.256879,-12287.418637,740.205942,-77069.207099
86.259421,4293.194464,740.205942,-77835.302597
86.261964,444.123565,-4441.235652,-78448.178995
86.264506,-12879.583391,-3701.029710,-76149.892501
86.267056,-1924.535449,740.205942,-76609.549800
86.269605,-2960.823768,-3404.947333,-80746.465489
86.272155,-10807.006753,592.164754,-77835.302597
86.274704,-4885.359217,1036.288319,-77682.083497
86.277254,-1332.370696,-5033.400406,-78754.617194
86.279803,-17616.901420,-4145.153275,-77835.302597
86.282353,-24574.837274,1184.329507,-76456.330700
86.284902,-3849.070898,1036.288319,-76915.987999
86.287452,2220.617826,-4885.359217,-77222.426198
86.290001,-8438.347739,296.082377,-77682.083497
86.292551,12287.418637,-444.123565,-77222.426198
86.295100,15544.324782,-4737.318029,-77375.645298
86.297650,11695.253884,-444.123565,-78907.836294
86.300199,-1776.494261,2072.576638,-77988.521696
86.302749,6513.812290,-5921.647536,-75996.673402
86.305298,-8438.347739,-4885.359217,-79980.369991
86.307848,740.205942,4293.194464,-77528.864398
86.310397,20725.766376,-5033.400406,-79520.712692
86.312947,1332.370696,-1332.370696,-76609.549800
86.315496,-2220.617826,0.000000,-77988.521696
86.318046,3108.864956,-5625.565159,-75996.673402
86.320595,4737.318029,-2960.823768,-80286.808190
86.323145,3256.906145,-148.041188,-77069.207099
86.325694,25759.166782,-592.164754,-75996.673402
86.328244,14211.954086,-6809.894666,-79214.274493
86.330793,-1776.494261,3849.070898,-77682.083497
86.333343,5181.441594,-2220.617826,-78294.959896
86.335892,6957.935855,-4145.153275,-77222.426198
86.338442,-14211.954086,148.041188,-78141.740796
86.340991,-3997.112087,3701.029710,-74924.139704
86.343541,-15840.407159,-6365.771101,-78601.398095
86.346090,-13471.748144,-592.164754,-77988.521696
86.348645,-2664.741391,3404.947333,-78754.617194
86.351201,9622.677246,-4737.318029,-78448.178995
86.353756,-10807.006753,-2812.782580,-76609.549800
86.356311,-5921.647536,-444.123565,-76149.892501
86.358866,-4589.276840,-4885.359217,-77835.302597
86.361421,-13471.748144,2516.700203,-78907.836294
86.363976,-5033.400406,4737.318029,-76456.330700
86.366532,4737.318029,-7550.100608,-77988.521696
86.369087,-12139.377449,-1480.411884,-76303.111601
86.371642,-23538.548956,2516.700203,-79061.055394
86.374197,-9030.512492,-1332.370696,-77682.083497
86.376752,-16580.613101,-3849.070898,-78294.959896
86.379308,-1628.453072,3256.906145,-77682.083497
86.381863,2812.782580,-7105.977043,-78294.959896
86.384418,6957.935855,-1332.370696,-77988.521696
86.386973,5625.565159,296.082377,-79520.712692
86.389528,19097.313304,1628.453072,-77682.083497
86.392083,1776.494261,-4589.276840,-78294.959896
86.394639,-5773.606348,-592.164754,-75843.454302
86.397194,2072.576638,-1480.411884,-78141.740796
86.399749,12287.418637,-4589.276840,-78448.178995
86.402304,1480.411884,2812.782580,-78601.398095
86.404859,6809.894666,-1184.329507,-76609.549800
86.407414,5477.523971,-6217.729913,-75843.454302
86.409970,-6957.935855,-3849.070898,-78754.617194
86.412525,4885.359217,5477.523971,-76609.549800
86.415080,17468.860231,-5921.647536,-78448.178995
86.417635,10362.883188,-1924.535449,-77835.302597
86.420190,12139.377449,1184.329507,-75996.673402
86.422746,8882.471304,-5921.647536,-78448.178995
86.425301,-4885.359217,-296.082377,-77069.207099
86.427856,4885.359217,296.082377,-77682.083497
86.430411,-1184.329507,-3108.864956,-77835.302597
86.432966,-15248.242405,-2812.782580,-77682.083497
86.435521,-23982.672521,1036.288319,-77682.083497
86.438077,1332.370696,-2072.576638,-78448.178995
86.440632,-3256.906145,-2960.823768,-79061.055394
86.443187,1036.288319,3256.906145,-77069.207099
86.445742,4885.359217,-4441.235652,-77528.864398
86.448297,-10214.842000,-4293.194464,-77835.302597
86.450825,-12583.501014,1332.370696,-78448.178995
86.453353,-2960.823768,2072.576638,-79061.055394
86.455880,4293.194464,-4293.194464,-77069.207099
86.458408,-9030.512492,-2812.782580,-75077.358804
86.460936,-10658.965565,0.000000,-75996.673402
86.463464,-15988.448347,-4737.318029,-77835.302597
86.465991,-21614.013506,1036.288319,-78601.398095
86.468519,-2664.741391,1184.329507,-77528.864398
86.471047,-444.123565,-6069.688724,-79061.055394
86.473575,-6069.688724,592.164754,-78141.740796
86.476102,13619.789333,2960.823768,-76609.549800
86.478630,21317.931130,-6809.894666,-80133.589091
86.481158,3701.029710,1184.329507,-76456.330700
86.483685,-2664.741391,444.123565,-76762.768900
86.486213,6365.771101,-6513.812290,-75537.016103
86.488741,-1480.411884,-2220.617826,-79061.055394
86.491269,3701.029710,4885.359217,-79827.150892
86.493796,12287.418637,-6365.771101,-78294.959896
86.496324,1924.535449,-1480.411884,-77682.083497
86.498852,-16580.613101,1924.535449,-76149.892501
86.501379,9178.553681,-2220.617826,-77835.302597
86.503907,10510.924376,-4441.235652,-80133.589091
86.506435,7994.224174,4145.153275,-78294.959896
86.508963,20577.725188,-5477.523971,-77682.083497
86.511490,9474.636058,-3256.906145,-76456.330700
86.514018,-4441.235652,888.247130,-77222.426198
86.516546,12879.583391,-1924.535449,-79520.712692
86.519073,-148.041188,-5181.441594,-77069.207099
86.521601,-19541.436869,-888.247130,-76149.892501
86.524129,-16432.571912,592.164754,-76456.330700
86.526657,-8882.471304,-6513.812290,-77682.083497
86.529184,-10807.006753,1184.329507,-75537.016103
86.531712,7698.141797,-592.164754,-77682.083497
86.534240,7254.018232,-3108.864956,-77682.083497
86.536767,-10066.800811,-2368.659014,-75996.673402
86.539295,-11399.171507,1036.288319,-76915.987999
86.541823,7846.182985,-2220.617826,-80899.684589
86.544351,-9622.677246,-888.247130,-78754.617194
86.546878,-7105.977043,1184.329507,-75383.797003
86.549406,-4737.318029,-8586.388927,-76915.987999
86.551950,-20577.725188,-1184.329507,-78448.178995
86.554488,-20725.766376,2220.617826,-79520.712692
86.557025,-1480.411884,-4885.359217,-79367.493593
86.559563,-12435.459826,-1480.411884,-76303.111601
86.562101,-2516.700203,888.247130,-78141.740796
86.564639,21169.889941,-2220.617826,-76456.330700
86.567177,14359.995275,-2516.700203,-78907.836294
86.569714,6809.894666,1184.329507,-78448.178995
86.572252,9030.512492,-592.164754,-78294.959896
86.574790,0.000000,-6513.812290,-77222.426198
86.577328,-7846.182985,2368.659014,-76456.330700
86.579865,14211.954086,-1776.494261,-80593.246390
86.582403,5625.565159,-1332.370696,-80133.589091
