#time,accel_x,accel_y,accel_z
843.681058,-740.205942,-1776.494261,-79214.274493
843.683597,148.041188,-740.205942,-78448.178995
843.686137,-1184.329507,-2072.576638,-79520.712692
843.688677,-592.164754,-1332.370696,-78754.617194
843.691217,-592.164754,-1184.329507,-79214.274493
843.693757,296.082377,-1480.411884,-79367.493593
843.696297,-592.164754,-740.205942,-78601.398095
843.698837,-444.123565,-1332.370696,-78907.836294
843.701377,-444.123565,-2960.823768,-79214.274493
843.703917,444.123565,444.123565,-78448.178995
843.706457,-1332.370696,-7698.141797,-79980.369991
843.708997,444.123565,-2516.700203,-78601.398095
843.711537,-740.205942,-9622.677246,-78754.617194
843.714076,-148.041188,-5477.523971,-79367.493593
843.716616,-1628.453072,-10658.965565,-80593.246390
843.719156,148.041188,-6217.729913,-79367.493593
843.721696,-888.247130,-3701.029710,-79827.150892
843.724236,-888.247130,-148.041188,-80133.589091
843.726776,148.041188,148.041188,-79061.055394
843.729316,-1776.494261,-1628.453072,-78907.836294
843.731856,-148.041188,-3256.906145,-78448.178995
843.734396,-592.164754,-7550.100608,-78601.398095
843.736936,1184.329507,-1184.329507,-79061.055394
843.739476,-740.205942,-592.164754,-80133.589091
843.742015,-888.247130,6365.771101,-78754.617194
843.744555,148.041188,5181.441594,-78754.617194
843.747095,1628.453072,8290.306550,-78601.398095
843.749656,0.000000,3404.947333,-79214.274493
843.752217,0.000000,1184.329507,-79673.931792
843.754778,-1332.370696,-3701.029710,-79673.931792
843.757339,740.205942,-2072.576638,-78907.836294
843.759900,-592.164754,-5477.523971,-79520.712692
843.762461,296.082377,2072.576638,-79980.369991
843.765022,-1036.288319,1332.370696,-79061.055394
843.767583,1628.453072,13027.624579,-76456.330700
843.770144,-740.205942,1036.288319,-77835.302597
843.772704,296.082377,3552.988522,-79214.274493
843.775265,-1036.288319,-10214.842000,-80593.246390
843.777826,-888.247130,888.247130,-78907.836294
843.780387,-888.247130,-1036.288319,-78448.178995
843.782948,-444.123565,3404.947333,-78294.959896
843.785509,1332.370696,7254.018232,-77528.864398
843.788070,-1332.370696,4589.276840,-80286.808190
843.790631,296.082377,3256.906145,-79520.712692
843.793192,-1184.329507,2072.576638,-80133.589091
843.795753,444.123565,740.205942,-78907.836294
843.798314,-1184.329507,-592.164754,-78907.836294
843.800874,-296.082377,-1628.453072,-79061.055394
843.803435,-148.041188,-1628.453072,-78754.617194
843.805996,296.082377,2812.782580,-78907.836294
843.808557,-1184.329507,5181.441594,-78907.836294
843.811118,-1036.288319,4589.276840,-79214.274493
843.813679,444.123565,3701.029710,-77835.302597
843.816240,-592.164754,1924.535449,-79673.931792
843.818801,-296.082377,-296.082377,-80286.808190
843.821362,-888.247130,-2960.823768,-78294.959896
843.823923,1036.288319,-10066.800811,-78601.398095
843.826484,-296.082377,-10066.800811,-79367.493593
843.829045,-740.205942,-4589.276840,-79061.055394
843.831605,-740.205942,-4441.235652,-79520.712692
843.834166,-296.082377,0.000000,-79520.712692
843.836727,296.082377,-444.123565,-78754.617194
843.839288,-592.164754,740.205942,-79061.055394
843.841849,-740.205942,-3849.070898,-79061.055394
843.844410,-1332.370696,-3108.864956,-78754.617194
843.846971,-444.123565,-10658.965565,-80899.684589
843.849532,-148.041188,-7254.018232,-78448.178995
843.851972,-592.164754,-7994.224174,-78601.398095
843.854412,-1776.494261,-1036.288319,-77988.521696
843.856853,888.247130,-740.205942,-78907.836294
843.859293,0.000000,-148.041188,-78907.836294
843.861733,-148.041188,-888.247130,-79673.931792
843.864174,-592.164754,-9030.512492,-80899.684589
843.866614,148.041188,3849.070898,-78448.178995
843.869054,-592.164754,-11103.089130,-79520.712692
843.871494,-888.247130,-4737.318029,-80746.465489
843.873935,-740.205942,4589.276840,-76762.768900
843.876375,592.164754,-11547.212695,-80746.465489
843.878815,-592.164754,-1628.453072,-78754.617194
843.881255,-148.041188,-8438.347739,-78141.740796
843.883696,-2072.576638,-3404.947333,-79980.369991
843.886136,1332.370696,-10362.883188,-80746.465489
843.888576,-2664.741391,-5181.441594,-77682.083497
843.891017,740.205942,-4885.359217,-79673.931792
843.893457,-888.247130,-2960.823768,-80286.808190
843.895897,1036.288319,-740.205942,-78448.178995
843.898337,-1776.494261,-592.164754,-79061.055394
843.900778,-740.205942,-5477.523971,-78754.617194
843.903218,-740.205942,-3701.029710,-78448.178995
843.905658,0.000000,-9770.718434,-80286.808190
843.908099,-592.164754,-5773.606348,-79214.274493
843.910539,-1480.411884,-2664.741391,-78907.836294
843.912979,1184.329507,-4737.318029,-79980.369991
843.915419,-1184.329507,-2516.700203,-80286.808190
843.917860,1036.288319,6809.894666,-78448.178995
843.920300,-1480.411884,8142.265362,-79367.493593
843.922740,888.247130,6365.771101,-79673.931792
843.925181,148.041188,5329.482782,-78754.617194
843.927621,-296.082377,888.247130,-80593.246390
843.930061,-148.041188,-1036.288319,-77069.207099
843.932501,-148.041188,-5477.523971,-78754.617194
843.934942,-740.205942,-888.247130,-79980.369991
843.937382,-148.041188,592.164754,-80593.246390
843.939822,0.000000,3997.112087,-79214.274493
843.942263,-592.164754,2072.576638,-78601.398095
843.944703,-444.123565,7846.182985,-77682.083497
843.947143,888.247130,1924.535449,-78907.836294
843.949634,-148.041188,4293.194464,-79367.493593
843.952125,148.041188,-2516.700203,-78141.740796
843.954617,-888.247130,888.247130,-78448.178995
843.957108,444.123565,-4885.359217,-80593.246390
843.959599,-1184.329507,1036.288319,-80286.808190
843.962090,148.041188,4737.318029,-78294.959896
843.964581,592.164754,4737.318029,-79673.931792
843.967073,-296.082377,-740.205942,-80593.246390
843.969564,-2072.576638,-148.041188,-79980.369991
843.972055,148.041188,-1184.329507,-79367.493593
843.974546,-1036.288319,1480.411884,-79061.055394
843.977037,1036.288319,2960.823768,-78907.836294
843.979529,-1480.411884,5773.606348,-78907.836294
843.982020,0.000000,3997.112087,-78448.178995
843.984511,0.000000,2220.617826,-78754.617194
843.987002,296.082377,-296.082377,-79214.274493
843.989493,-2368.659014,-1628.453072,-79367.493593
843.991985,1628.453072,1776.494261,-78294.959896
843.994476,-2664.741391,1332.370696,-79980.369991
843.996967,2960.823768,3552.988522,-79367.493593
843.999458,-1036.288319,1776.494261,-79520.712692
844.001949,1924.535449,3701.029710,-78754.617194
844.004441,-2664.741391,148.041188,-78754.617194
844.006932,1628.453072,3552.988522,-78294.959896
844.009423,-296.082377,-4737.318029,-78907.836294
844.011914,1480.411884,-6069.688724,-78294.959896
844.014405,-1332.370696,-11843.295072,-79214.274493
844.016897,444.123565,-8142.265362,-79673.931792
844.019388,-296.082377,-9326.594869,-79827.150892
844.021879,-148.041188,-2516.700203,-79673.931792
844.024370,-592.164754,-592.164754,-78141.740796
844.026861,-148.041188,1924.535449,-78448.178995
844.029353,-1776.494261,-2368.659014,-79061.055394
844.031844,-296.082377,-3701.029710,-78754.617194
844.034335,-148.041188,-5921.647536,-78294.959896
844.036826,-148.041188,-7254.018232,-78141.740796
844.039317,-1332.370696,-7550.100608,-79061.055394
844.041808,1184.329507,-5921.647536,-80133.589091
844.044300,-1184.329507,-3404.947333,-79061.055394
844.046791,1480.411884,-148.041188,-78601.398095
844.049319,-1036.288319,-1036.288319,-79673.931792
844.051845,148.041188,-3849.070898,-79214.274493
844.054371,296.082377,148.041188,-76149.892501
844.056898,-592.164754,-9622.677246,-79980.369991
844.059424,-1332.370696,740.205942,-78141.740796
844.061951,1184.329507,-4441.235652,-79061.055394
844.064477,-148.041188,-6957.935855,-80133.589091
844.067004,444.123565,-2664.741391,-79367.493593
844.069530,148.041188,-6957.935855,-79061.055394
844.072057,0.000000,-6069.688724,-80133.589091
844.074583,148.041188,-10214.842000,-80133.589091
844.077110,1036.288319,-3404.947333,-78448.178995
844.079636,0.000000,-4589.276840,-78754.617194
844.082163,-1332.370696,-148.041188,-78294.959896
844.084689,444.123565,-1332.370696,-78754.617194
844.087216,-592.164754,-4589.276840,-79367.493593
844.089742,1036.288319,-5477.523971,-78907.836294
844.092269,-1184.329507,-5181.441594,-78601.398095
844.094795,1036.288319,-6217.729913,-80899.684589
844.097322,-1332.370696,-3997.112087,-79367.493593
844.099848,1184.329507,-5773.606348,-78601.398095
844.102375,-1036.288319,-3404.947333,-78141.740796
844.104901,740.205942,5625.565159,-77835.302597
844.107427,0.000000,8586.388927,-79214.274493
844.109954,1332.370696,5477.523971,-79827.150892
844.112480,-148.041188,5625.565159,-79827.150892
844.115007,148.041188,-592.164754,-78601.398095
844.117533,-296.082377,-2072.576638,-78754.617194
844.120060,-296.082377,-5329.482782,-79673.931792
844.122586,-296.082377,-1184.329507,-79367.493593
844.125113,0.000000,888.247130,-79367.493593
844.127639,-740.205942,5477.523971,-77988.521696
844.130166,-444.123565,4145.153275,-79980.369991
844.132692,-148.041188,4441.235652,-79673.931792
844.135219,296.082377,5921.647536,-79673.931792
844.137745,-888.247130,-1480.411884,-78907.836294
844.140272,-592.164754,-4145.153275,-76762.768900
844.142798,1036.288319,3256.906145,-78141.740796
844.145325,444.123565,-10955.047942,-80440.027290
844.147851,-1480.411884,9622.677246,-80440.027290
844.150303,740.205942,-148.041188,-77988.521696
844.152754,-148.041188,-4293.194464,-82125.437386
844.155206,-1628.453072,8142.265362,-78141.740796
844.157658,-444.123565,3404.947333,-79367.493593
844.160110,1924.535449,3108.864956,-77988.521696
844.162561,-1480.411884,1036.288319,-77375.645298
844.165013,888.247130,3552.988522,-78141.740796
844.167465,-1776.494261,1924.535449,-80133.589091
844.169916,740.205942,592.164754,-77682.083497
844.172368,-592.164754,296.082377,-77835.302597
844.174820,0.000000,-888.247130,-80133.589091
844.177272,-592.164754,3997.112087,-79673.931792
844.179723,-592.164754,3552.988522,-79520.712692
844.182175,0.000000,2072.576638,-78601.398095
844.184627,888.247130,2220.617826,-77069.207099
844.187078,0.000000,-444.123565,-79061.055394
844.189530,444.123565,2220.617826,-77682.083497
844.191982,-592.164754,0.000000,-78601.398095
844.194434,592.164754,-7698.141797,-78601.398095
844.196885,0.000000,-9770.718434,-78907.836294
844.199337,0.000000,-9770.718434,-78907.836294
844.201789,-1332.370696,-7846.182985,-80440.027290
844.204240,-444.123565,-4589.276840,-79214.274493
844.206692,592.164754,-1924.535449,-78754.617194
844.209144,-296.082377,296.082377,-79061.055394
844.211596,148.041188,-148.041188,-78601.398095
844.214047,-1184.329507,-4293.194464,-79214.274493
844.216499,1036.288319,-5033.400406,-78448.178995
844.218951,-1036.288319,-6365.771101,-79520.712692
844.221402,0.000000,-6365.771101,-78601.398095
844.223854,-2220.617826,-3701.029710,-78907.836294
844.226306,296.082377,-8882.471304,-79367.493593
844.228757,-296.082377,740.205942,-77528.864398
844.231209,-444.123565,-6365.771101,-81512.560987
844.233661,-148.041188,444.123565,-79367.493593
844.236113,444.123565,-1184.329507,-79980.369991
844.238564,-444.123565,-5181.441594,-78907.836294
844.241016,1480.411884,-1184.329507,-78294.959896
844.243468,148.041188,-2368.659014,-79061.055394
844.245919,-296.082377,-4737.318029,-80133.589091
844.248417,444.123565,-8438.347739,-79367.493593
844.250915,-444.123565,-9326.594869,-78907.836294
844.253413,444.123565,-6217.729913,-78141.740796
844.255911,-592.164754,-5477.523971,-79673.931792
844.258409,0.000000,-2960.823768,-78907.836294
844.260907,-592.164754,-1036.288319,-79520.712692
844.263405,740.205942,-2812.782580,-79061.055394
844.265903,-1480.411884,-2664.741391,-78294.959896
844.268401,-1776.494261,-6661.853478,-78754.617194
844.270899,-888.247130,-4885.359217,-78907.836294
844.273397,-296.082377,-5625.565159,-78754.617194
844.275895,296.082377,-5181.441594,-79520.712692
844.278393,-592.164754,-7402.059420,-78907.836294
844.280891,592.164754,148.041188,-79061.055394
844.283389,-444.123565,6365.771101,-78294.959896
844.285887,-296.082377,10955.047942,-78907.836294
844.288385,0.000000,5625.565159,-79980.369991
844.290883,148.041188,6661.853478,-79061.055394
844.293381,296.082377,-1628.453072,-78754.617194
844.295879,740.205942,-2220.617826,-79061.055394
844.298377,-1184.329507,-5181.441594,-79367.493593
844.300875,444.123565,-1184.329507,-80746.465489
844.303373,-740.205942,2664.741391,-79214.274493
844.305871,0.000000,3701.029710,-78754.617194
844.308369,148.041188,6661.853478,-79520.712692
844.310867,148.041188,3552.988522,-79520.712692
844.313365,-888.247130,6217.729913,-78907.836294
844.315863,-296.082377,592.164754,-78141.740796
844.318361,740.205942,-3849.070898,-78294.959896
844.320859,-1036.288319,-1480.411884,-79520.712692
844.323357,-148.041188,-1776.494261,-78754.617194
844.325855,0.000000,-2664.741391,-79367.493593
844.328353,-592.164754,1332.370696,-79214.274493
844.330851,-592.164754,2664.741391,-78754.617194
844.333349,-888.247130,5329.482782,-79061.055394
844.335847,-592.164754,4589.276840,-80286.808190
844.338345,296.082377,3256.906145,-78294.959896
844.340843,-592.164754,2368.659014,-78601.398095
844.343341,-148.041188,2812.782580,-79214.274493
844.345839,-888.247130,2516.700203,-79367.493593
844.348368,-148.041188,1036.288319,-79061.055394
844.350898,148.041188,444.123565,-78448.178995
844.353427,148.041188,2368.659014,-78907.836294
844.355956,-148.041188,1776.494261,-79827.150892
844.358486,148.041188,2220.617826,-79367.493593
844.361015,888.247130,3404.947333,-79061.055394
844.363544,-1332.370696,2072.576638,-78294.959896
844.366074,592.164754,2220.617826,-79214.274493
844.368603,-148.041188,-3701.029710,-79367.493593
844.371132,740.205942,-7105.977043,-77835.302597
844.373661,-148.041188,-12435.459826,-79061.055394
844.376191,-888.247130,-9770.718434,-78907.836294
844.378720,-1036.288319,-7254.018232,-80133.589091
844.381249,-888.247130,-2072.576638,-79061.055394
844.383779,-888.247130,-1924.535449,-79061.055394
844.386308,444.123565,296.082377,-77988.521696
844.388837,-296.082377,-1924.535449,-79367.493593
844.391366,-592.164754,-4737.318029,-78294.959896
844.393896,-296.082377,-5921.647536,-78754.617194
844.396425,-296.082377,-6661.853478,-78907.836294
844.398954,1036.288319,-9622.677246,-79520.712692
844.401484,-1036.288319,-6513.812290,-77835.302597
844.404013,148.041188,-5033.400406,-80286.808190
844.406542,592.164754,1036.288319,-78907.836294
844.409071,0.000000,-592.164754,-79367.493593
844.411601,148.041188,-2516.700203,-79520.712692
844.414130,1036.288319,-3404.947333,-79367.493593
844.416659,1184.329507,-1776.494261,-78294.959896
844.419189,-1628.453072,-5477.523971,-79520.712692
844.421718,1628.453072,-3552.988522,-78141.740796
844.424247,-296.082377,-11103.089130,-79367.493593
844.426777,296.082377,-5181.441594,-79367.493593
844.429306,-592.164754,-8290.306550,-78141.740796
844.431835,444.123565,-4589.276840,-78601.398095
844.434364,-296.082377,-3404.947333,-80899.684589
844.436894,-148.041188,-888.247130,-79520.712692
844.439423,-1036.288319,-740.205942,-79061.055394
844.441952,296.082377,-6809.894666,-79980.369991
844.444482,-296.082377,-7254.018232,-79367.493593
844.447011,-444.123565,-4885.359217,-78907.836294
844.449564,-296.082377,-3108.864956,-78907.836294
844.452116,-148.041188,-6809.894666,-78907.836294
844.454669,-148.041188,-4145.153275,-78754.617194
844.457221,-148.041188,1036.288319,-78754.617194
844.459774,-592.164754,6809.894666,-79980.369991
844.462327,-296.082377,9918.759623,-80286.808190
844.464879,-148.041188,6217.729913,-79980.369991
844.467432,0.000000,5921.647536,-78294.959896
844.469985,-296.082377,-1036.288319,-78141.740796
844.472537,-1036.288319,-3552.988522,-79061.055394
844.475090,0.000000,-4145.153275,-79827.150892
844.477643,-296.082377,-592.164754,-79214.274493
844.480195,0.000000,4145.153275,-78907.836294
844.482748,444.123565,2960.823768,-79673.931792
844.485301,-1036.288319,6809.894666,-78907.836294
844.487853,1332.370696,7402.059420,-78907.836294
844.490406,0.000000,3108.864956,-80440.027290
844.492958,-148.041188,-3552.988522,-80286.808190
844.495511,-296.082377,444.123565,-77375.645298
844.498064,1628.453072,-4589.276840,-78754.617194
844.500616,-740.205942,-1036.288319,-78907.836294
844.503169,-888.247130,-1332.370696,-79214.274493
844.505722,444.123565,5921.647536,-79520.712692
844.508274,1036.288319,1036.288319,-77988.521696
844.510827,-592.164754,3552.988522,-79673.931792
844.513380,-296.082377,4441.235652,-78448.178995
844.515932,-1480.411884,2368.659014,-79061.055394
844.518485,-148.041188,1184.329507,-78601.398095
844.521038,-148.041188,1628.453072,-79061.055394
844.523590,740.205942,592.164754,-79061.055394
844.526143,-888.247130,1036.288319,-78294.959896
844.528696,740.205942,3256.906145,-78294.959896
844.531265,-592.164754,2960.823768,-79214.274493
844.533834,592.164754,2220.617826,-78907.836294
844.536403,-296.082377,592.164754,-79214.274493
844.538972,-444.123565,3404.947333,-78754.617194
844.541541,296.082377,1924.535449,-78754.617194
844.544110,444.123565,-3701.029710,-79673.931792
844.546680,-888.247130,-9474.636058,-79367.493593
844.549249,-296.082377,-11399.171507,-79214.274493
844.551818,-1184.329507,-7105.977043,-79214.274493
844.554387,-740.205942,-5181.441594,-78907.836294
844.556956,-592.164754,-3552.988522,-79827.150892
844.559525,-888.247130,296.082377,-78294.959896
844.562094,-296.082377,148.041188,-78754.617194
844.564664,-1036.288319,-740.205942,-79214.274493
844.567233,-1036.288319,-6513.812290,-79827.150892
844.569802,-148.041188,-4589.276840,-79520.712692
844.572371,-296.082377,-11695.253884,-79980.369991
844.574940,-444.123565,-5329.482782,-77835.302597
844.577509,-1184.329507,-5773.606348,-79520.712692
844.580078,0.000000,-148.041188,-77069.207099
844.582648,296.082377,-3404.947333,-79827.150892
844.585217,0.000000,-1036.288319,-79061.055394
844.587786,740.205942,-1332.370696,-78754.617194
844.590355,0.000000,-1184.329507,-79367.493593
844.592924,1184.329507,-3552.988522,-79520.712692
844.595493,296.082377,-7846.182985,-80440.027290
844.598062,1332.370696,-11251.130318,-79061.055394
844.600632,-296.082377,-3701.029710,-79673.931792
844.603201,-592.164754,-7994.224174,-79980.369991
844.605770,-592.164754,-3404.947333,-78907.836294
844.608339,0.000000,-4589.276840,-78754.617194
844.610908,740.205942,-1776.494261,-79061.055394
844.613477,-444.123565,-3701.029710,-78448.178995
844.616046,296.082377,-5921.647536,-78294.959896
844.618616,-296.082377,-5625.565159,-78601.398095
844.621185,-888.247130,-4885.359217,-79520.712692
844.623754,-888.247130,-4441.235652,-79367.493593
844.626323,-444.123565,-7698.141797,-80440.027290
844.628892,-740.205942,-3108.864956,-78294.959896
844.631461,-444.123565,4589.276840,-78448.178995
844.634040,-888.247130,8142.265362,-79367.493593
844.636619,-1036.288319,8290.306550,-79673.931792
844.639197,-148.041188,5921.647536,-78907.836294
844.641776,-1036.288319,-148.041188,-79214.274493
844.644355,1480.411884,-1480.411884,-78294.959896
844.646933,-1776.494261,-4441.235652,-80286.808190
844.649512,1036.288319,-148.041188,-79367.493593
844.652090,-2072.576638,148.041188,-80286.808190
844.654669,-296.082377,4145.153275,-78754.617194
844.657248,148.041188,5625.565159,-78907.836294
844.659826,-2516.700203,5181.441594,-77988.521696
844.662405,-444.123565,3997.112087,-79520.712692
844.664984,-148.041188,-740.205942,-81665.780087
844.667562,1036.288319,-740.205942,-78754.617194
844.670141,592.164754,-3108.864956,-79061.055394
844.672719,-1776.494261,-2664.741391,-77682.083497
844.675298,740.205942,-1480.411884,-79980.369991
844.677877,-444.123565,6661.853478,-78141.740796
844.680455,296.082377,4589.276840,-78907.836294
844.683034,592.164754,6513.812290,-79367.493593
844.685613,592.164754,1776.494261,-77222.426198
844.688191,-1332.370696,2368.659014,-78601.398095
844.690770,-1184.329507,148.041188,-78907.836294
844.693348,0.000000,1628.453072,-79061.055394
844.695927,148.041188,1480.411884,-78601.398095
844.698506,-296.082377,1628.453072,-79673.931792
844.701084,1036.288319,3552.988522,-78294.959896
844.703663,-444.123565,1332.370696,-79827.150892
844.706242,296.082377,3701.029710,-79214.274493
844.708820,-888.247130,3108.864956,-78907.836294
844.711399,-888.247130,3849.070898,-79214.274493
844.713978,-296.082377,-148.041188,-78294.959896
844.716556,0.000000,-8438.347739,-77682.083497
844.719135,-444.123565,-12583.501014,-79214.274493
844.721713,-592.164754,-9622.677246,-79673.931792
844.724292,148.041188,-8734.430116,-79520.712692
844.726871,-444.123565,-2960.823768,-78601.398095
844.729449,0.000000,-1776.494261,-79673.931792
844.732028,-148.041188,1332.370696,-78907.836294
844.734607,-444.123565,-888.247130,-79673.931792
844.737192,-740.205942,-4737.318029,-79214.274493
844.739778,-296.082377,-6661.853478,-79520.712692
844.742363,-148.041188,-8438.347739,-79367.493593
844.744949,-1924.535449,-11103.089130,-77988.521696
844.747534,0.000000,-5921.647536,-79520.712692
844.750120,0.000000,-444.123565,-78601.398095
844.752705,-444.123565,-1036.288319,-79214.274493
844.755291,148.041188,-1480.411884,-78448.178995
844.757876,444.123565,-1184.329507,-78907.836294
844.760462,888.247130,-4589.276840,-78754.617194
844.763048,-740.205942,-3849.070898,-79520.712692
844.765633,888.247130,-8586.388927,-79520.712692
844.768219,444.123565,-11251.130318,-78448.178995
844.770804,0.000000,-4737.318029,-78907.836294
844.773390,-592.164754,-4885.359217,-80133.589091
844.775975,592.164754,-2960.823768,-78601.398095
844.778561,592.164754,-2960.823768,-79980.369991
844.781146,-1184.329507,-2368.659014,-79827.150892
844.783732,0.000000,-6957.935855,-79367.493593
844.786317,-592.164754,-5773.606348,-78907.836294
844.788903,0.000000,-5329.482782,-78141.740796
844.791489,-888.247130,-2812.782580,-78294.959896
844.794074,-592.164754,-7402.059420,-79827.150892
844.796660,-592.164754,-2220.617826,-78448.178995
844.799245,444.123565,-148.041188,-78754.617194
844.801831,148.041188,7698.141797,-78448.178995
844.804416,-296.082377,8734.430116,-79673.931792
844.807002,148.041188,6809.894666,-79827.150892
844.809587,-592.164754,5329.482782,-78907.836294
844.812173,-592.164754,296.082377,-78294.959896
844.814758,-148.041188,-4441.235652,-78601.398095
844.817344,-444.123565,-4145.153275,-80440.027290
844.819929,444.123565,148.041188,-79367.493593
844.822515,296.082377,3404.947333,-78294.959896
844.825101,-296.082377,3849.070898,-77988.521696
844.827686,296.082377,5033.400406,-79061.055394
844.830272,-888.247130,7550.100608,-79827.150892
844.832857,148.041188,0.000000,-78907.836294
844.835443,148.041188,2516.700203,-77528.864398
844.838028,1924.535449,6365.771101,-78141.740796
844.840617,-444.123565,-10362.883188,-81206.122788
844.843205,-296.082377,9622.677246,-75843.454302
844.845794,-888.247130,-5773.606348,-79673.931792
844.848382,1036.288319,8142.265362,-80286.808190
844.850971,-444.123565,2664.741391,-79520.712692
844.853560,1628.453072,6957.935855,-80440.027290
844.856148,-1776.494261,2072.576638,-77988.521696
844.858737,-2072.576638,-592.164754,-80746.465489
844.861325,0.000000,1628.453072,-79367.493593
844.863914,-888.247130,-148.041188,-79214.274493
844.866502,888.247130,1924.535449,-77682.083497
844.869091,-444.123565,3256.906145,-77988.521696
844.871679,-1776.494261,2072.576638,-79367.493593
844.874268,-444.123565,3108.864956,-78448.178995
844.876857,-148.041188,1036.288319,-80899.684589
844.879445,-296.082377,1924.535449,-79367.493593
844.882034,0.000000,-4885.359217,-79520.712692
844.884622,-592.164754,-10066.800811,-78907.836294
844.887211,-888.247130,-10955.047942,-78601.398095
844.889799,1184.329507,-10214.842000,-79061.055394
844.892388,-296.082377,-9770.718434,-79980.369991
844.894976,-296.082377,-1332.370696,-78601.398095
844.897565,-444.123565,-1332.370696,-78907.836294
844.900153,-1036.288319,-1480.411884,-80286.808190
844.902742,740.205942,592.164754,-77835.302597
844.905331,-592.164754,-5773.606348,-79367.493593
844.907919,-296.082377,-8438.347739,-79367.493593
844.910508,0.000000,-8290.306550,-79520.712692
844.913096,-1480.411884,-11547.212695,-78294.959896
844.915685,444.123565,-3108.864956,-76762.768900
844.918273,296.082377,2812.782580,-79980.369991
844.920862,-444.123565,-3404.947333,-78448.178995
844.923450,0.000000,-3552.988522,-78907.836294
844.926039,-740.205942,-3404.947333,-79673.931792
844.928628,888.247130,-888.247130,-78294.959896
844.931216,444.123565,-9178.553681,-79214.274493
844.933805,740.205942,-7402.059420,-77835.302597
844.936393,-444.123565,-9326.594869,-79520.712692
844.938982,592.164754,-3701.029710,-78907.836294
844.941570,-148.041188,-4293.194464,-79061.055394
844.944161,296.082377,-2220.617826,-78907.836294
844.946752,-1924.535449,-4589.276840,-78907.836294
844.949343,296.082377,-5033.400406,-78294.959896
844.951933,-296.082377,-6809.894666,-78448.178995
844.954524,148.041188,-5921.647536,-79214.274493
844.957115,148.041188,-4145.153275,-79673.931792
844.959706,148.041188,-5921.647536,-78907.836294
844.962297,-888.247130,-3404.947333,-78141.740796
844.964888,296.082377,2664.741391,-78294.959896
844.967478,888.247130,6809.894666,-78907.836294
844.970069,-296.082377,8438.347739,-79827.150892
844.972660,-592.164754,6957.935855,-79520.712692
844.975251,-296.082377,4885.359217,-79367.493593
844.977842,592.164754,-740.205942,-78294.959896
844.980432,0.000000,-1480.411884,-78294.959896
844.983023,148.041188,-3701.029710,-80286.808190
844.985614,-296.082377,740.205942,-79827.150892
844.988205,444.123565,2516.700203,-79214.274493
844.990796,296.082377,6957.935855,-78601.398095
844.993386,740.205942,3256.906145,-77988.521696
844.995977,-888.247130,7402.059420,-79061.055394
844.998568,-296.082377,-444.123565,-80746.465489
845.001159,-296.082377,2664.741391,-77528.864398
845.003750,-888.247130,-2664.741391,-78754.617194
845.006340,-740.205942,-888.247130,-78907.836294
845.008931,-1036.288319,3997.112087,-77375.645298
845.011522,-740.205942,444.123565,-79520.712692
845.014113,444.123565,8882.471304,-79673.931792
845.016704,-444.123565,1776.494261,-79980.369991
845.019294,296.082377,7105.977043,-78754.617194
845.021885,-592.164754,1628.453072,-79673.931792
845.024476,-444.123565,2516.700203,-79214.274493
845.027067,-148.041188,-444.123565,-79980.369991
845.029658,444.123565,2072.576638,-79673.931792
845.032249,-592.164754,1480.411884,-80286.808190
845.034839,-148.041188,1628.453072,-78907.836294
845.037430,-888.247130,1924.535449,-79367.493593
845.040021,592.164754,4589.276840,-78754.617194
845.042612,-740.205942,4737.318029,-79827.150892
845.045203,740.205942,-5033.400406,-79673.931792
845.047796,-444.123565,-8734.430116,-78294.959896
845.050389,-1184.329507,-13619.789333,-78907.836294
845.052981,-148.041188,-10658.965565,-79061.055394
845.055574,-296.082377,-9918.759623,-79673.931792
845.058166,-296.082377,-4145.153275,-79214.274493
845.060759,148.041188,-1332.370696,-78754.617194
845.063351,-1776.494261,3849.070898,-77988.521696
845.065944,-1776.494261,-1332.370696,-79367.493593
845.068536,1184.329507,-4293.194464,-79214.274493
845.071129,-1480.411884,-9030.512492,-79673.931792
845.073721,-148.041188,-13619.789333,-79061.055394
845.076314,-592.164754,-10362.883188,-78448.178995
845.078907,148.041188,592.164754,-79367.493593
845.081499,-296.082377,-2516.700203,-79214.274493
845.084092,0.000000,-740.205942,-79214.274493
845.086684,592.164754,-296.082377,-79980.369991
845.089277,-592.164754,-5477.523971,-80440.027290
845.091869,1036.288319,-3849.070898,-78448.178995
845.094462,-148.041188,-11399.171507,-78448.178995
845.097054,444.123565,-7105.977043,-77835.302597
845.099647,-1332.370696,-11547.212695,-80133.589091
845.102239,-296.082377,-3404.947333,-80286.808190
845.104832,0.000000,-3552.988522,-79214.274493
845.107424,-148.041188,-1480.411884,-79520.712692
845.110017,-444.123565,-2368.659014,-78907.836294
845.112610,-740.205942,-5477.523971,-79827.150892
845.115202,592.164754,-5921.647536,-79061.055394
845.117795,148.041188,-5921.647536,-78601.398095
845.120387,888.247130,-7846.182985,-78448.178995
845.122980,-1480.411884,-6365.771101,-78294.959896
845.125572,1332.370696,-740.205942,-80133.589091
845.128165,148.041188,9326.594869,-79061.055394
845.130757,296.082377,8882.471304,-79827.150892
845.133350,-888.247130,8290.306550,-80593.246390
845.135942,444.123565,6217.729913,-79367.493593
845.138535,-592.164754,1036.288319,-78448.178995
845.141127,1036.288319,-4441.235652,-78601.398095
845.143720,-740.205942,-5625.565159,-79214.274493
845.146312,148.041188,-2664.741391,-79520.712692
845.148905,444.123565,2072.576638,-79520.712692
845.151497,0.000000,8734.430116,-78294.959896
845.154088,1036.288319,5477.523971,-79827.150892
845.156680,740.205942,5329.482782,-78754.617194
845.159272,-444.123565,7254.018232,-79061.055394
845.161864,-1480.411884,-2960.823768,-79827.150892
845.164455,592.164754,-5773.606348,-79980.369991
845.167047,0.000000,1036.288319,-77682.083497
845.169639,-148.041188,1332.370696,-78754.617194
845.172231,-444.123565,2516.700203,-80286.808190
845.174822,148.041188,6661.853478,-78294.959896
845.177414,296.082377,6809.894666,-79980.369991
845.180006,-148.041188,7846.182985,-79061.055394
845.182597,-1776.494261,1628.453072,-79214.274493
845.185189,-148.041188,2960.823768,-78448.178995
845.187781,-1776.494261,-2960.823768,-80133.589091
845.190373,-740.205942,1332.370696,-79061.055394
845.192964,444.123565,-1924.535449,-79980.369991
845.195556,-1776.494261,4145.153275,-79061.055394
845.198148,-1776.494261,2368.659014,-79827.150892
845.200739,1332.370696,9622.677246,-78448.178995
845.203331,0.000000,2516.700203,-79980.369991
845.205923,1628.453072,-4293.194464,-79061.055394
845.208515,-592.164754,-13619.789333,-79214.274493
845.211106,-1332.370696,-13471.748144,-79061.055394
845.213698,-740.205942,-13471.748144,-79827.150892
845.216290,444.123565,-6513.812290,-79520.712692
845.218881,740.205942,-3552.988522,-78754.617194
845.221473,-296.082377,5181.441594,-78141.740796
845.224065,-1332.370696,1036.288319,-79214.274493
845.226657,-1184.329507,1332.370696,-78754.617194
845.229248,1628.453072,-6069.688724,-79061.055394
845.231840,-296.082377,-7994.224174,-79367.493593
845.234432,-444.123565,-10658.965565,-77528.864398
845.237024,-888.247130,-8734.430116,-80286.808190
845.239615,-148.041188,-5477.523971,-79520.712692
845.242207,1036.288319,2220.617826,-79061.055394
845.244799,-444.123565,4441.235652,-79367.493593
845.247390,-1184.329507,-5329.482782,-80899.684589
845.249982,296.082377,-8734.430116,-81818.999186
845.252574,444.123565,-9622.677246,-79673.931792
845.255165,-148.041188,-9770.718434,-80133.589091
845.257756,888.247130,-8142.265362,-77528.864398
845.260348,-148.041188,-4145.153275,-79061.055394
845.262939,592.164754,-7402.059420,-79367.493593
845.265530,0.000000,-2516.700203,-79520.712692
845.268121,0.000000,-1332.370696,-78754.617194
845.270712,-444.123565,-1628.453072,-77375.645298
845.273304,-1184.329507,-2368.659014,-79367.493593
845.275895,-1184.329507,-4737.318029,-79980.369991
845.278486,-296.082377,-10658.965565,-79827.150892
845.281077,-592.164754,-6661.853478,-78601.398095
845.283669,-740.205942,1332.370696,-77988.521696
845.286260,-148.041188,6513.812290,-78907.836294
845.288851,740.205942,9770.718434,-79827.150892
845.291442,-1332.370696,8734.430116,-79367.493593
845.294033,888.247130,5921.647536,-78294.959896
845.296625,-592.164754,-1036.288319,-79061.055394
845.299216,-444.123565,-2812.782580,-79061.055394
845.301807,148.041188,-5033.400406,-79827.150892
845.304398,-740.205942,-2072.576638,-79367.493593
845.306990,740.205942,888.247130,-78294.959896
845.309581,-296.082377,4145.153275,-78448.178995
845.312172,888.247130,8290.306550,-78754.617194
845.314763,-444.123565,2960.823768,-80440.027290
845.317354,-1184.329507,3997.112087,-78907.836294
845.319946,-740.205942,-740.205942,-78141.740796
845.322537,444.123565,-1480.411884,-78601.398095
845.325128,-444.123565,-3404.947333,-77528.864398
845.327719,-148.041188,-4145.153275,-81206.122788
845.330311,0.000000,7254.018232,-79827.150892
845.332902,-888.247130,5329.482782,-80593.246390
845.335493,444.123565,10214.842000,-79367.493593
845.338084,-592.164754,4589.276840,-78754.617194
845.340675,-1036.288319,5773.606348,-78754.617194
845.343267,-740.205942,-2664.741391,-79980.369991
845.345858,296.082377,-1184.329507,-79061.055394
845.348449,592.164754,-3552.988522,-79520.712692
845.351040,-296.082377,1332.370696,-78754.617194
845.353632,-1480.411884,2516.700203,-78141.740796
845.356223,-444.123565,9918.759623,-78754.617194
845.358812,-148.041188,1480.411884,-79367.493593
845.361401,1628.453072,-1924.535449,-79367.493593
845.363989,-1628.453072,-12287.418637,-78907.836294
845.366578,148.041188,-12583.501014,-78754.617194
845.369167,-1776.494261,-14508.036463,-79061.055394
845.371756,592.164754,-8734.430116,-78448.178995
845.374345,1184.329507,-4441.235652,-79061.055394
845.376934,-888.247130,2368.659014,-77375.645298
845.379523,592.164754,1776.494261,-78601.398095
845.382112,-1480.411884,296.082377,-79827.150892
845.384700,592.164754,-3849.070898,-79520.712692
845.387289,-444.123565,-7994.224174,-79980.369991
845.389878,444.123565,-9474.636058,-77835.302597
845.392467,-1036.288319,-14952.160028,-78754.617194
845.395056,592.164754,-2516.700203,-79061.055394
845.397645,0.000000,1480.411884,-77988.521696
845.400234,148.041188,-1628.453072,-80286.808190
845.402822,-592.164754,296.082377,-78448.178995
845.405411,0.000000,-2812.782580,-78601.398095
845.408000,-592.164754,-5477.523971,-80286.808190
845.410589,-740.205942,-11399.171507,-79214.274493
845.413178,740.205942,-10362.883188,-78601.398095
845.415767,-444.123565,-7846.182985,-79673.931792
845.418356,148.041188,-5329.482782,-78601.398095
845.420944,888.247130,-2812.782580,-77988.521696
845.423533,148.041188,-2368.659014,-78907.836294
845.426122,-296.082377,1036.288319,-78601.398095
845.428711,-444.123565,-1480.411884,-79673.931792
845.431300,-296.082377,-5625.565159,-79214.274493
845.433889,148.041188,-10807.006753,-79520.712692
845.436478,-296.082377,-444.123565,-78448.178995
845.439067,-1332.370696,2664.741391,-79214.274493
845.441655,444.123565,8882.471304,-79673.931792
845.444244,-296.082377,8586.388927,-78907.836294
845.446833,1184.329507,9770.718434,-79061.055394
845.449422,-1036.288319,3256.906145,-77682.083497
845.452011,888.247130,1332.370696,-79673.931792
845.454600,-1184.329507,-5625.565159,-80286.808190
845.457189,1332.370696,-3404.947333,-79827.150892
845.459777,-888.247130,-444.123565,-79214.274493
845.462311,444.123565,1924.535449,-78141.740796
845.464844,0.000000,7254.018232,-79827.150892
845.467377,0.000000,5477.523971,-79673.931792
845.469910,444.123565,8882.471304,-77375.645298
845.472443,0.000000,-3404.947333,-80133.589091
845.474976,-444.123565,-5181.441594,-79214.274493
845.477509,0.000000,-1776.494261,-77375.645298
845.480042,-296.082377,1628.453072,-78294.959896
845.482576,-740.205942,6069.688724,-79520.712692
845.485109,-1332.370696,7105.977043,-79061.055394
845.487642,740.205942,7698.141797,-79061.055394
845.490175,148.041188,5181.441594,-79061.055394
845.492708,-296.082377,3701.029710,-78601.398095
845.495241,-148.041188,2220.617826,-79673.931792
845.497774,-740.205942,444.123565,-79061.055394
845.500307,296.082377,-1480.411884,-79827.150892
845.502840,-888.247130,-2516.700203,-79367.493593
845.505374,296.082377,4145.153275,-79061.055394
845.507907,-444.123565,4885.359217,-79367.493593
845.510440,592.164754,740.205942,-78907.836294
845.512973,1924.535449,-7105.977043,-78601.398095
845.515506,-1036.288319,-10066.800811,-78754.617194
845.518039,888.247130,-13175.665768,-78601.398095
845.520572,148.041188,-9770.718434,-79980.369991
845.523105,148.041188,-8734.430116,-78907.836294
845.525638,296.082377,-296.082377,-77988.521696
845.528172,-1036.288319,-148.041188,-79061.055394
845.530705,740.205942,3404.947333,-77835.302597
845.533238,-1480.411884,-5921.647536,-80440.027290
845.535771,888.247130,-4441.235652,-78294.959896
845.538304,-2368.659014,-13323.706956,-79061.055394
845.540837,-444.123565,-10214.842000,-77988.521696
845.543370,-888.247130,-3997.112087,-78141.740796
845.545903,592.164754,-1480.411884,-80899.684589
845.548437,-296.082377,296.082377,-79673.931792
845.550970,-148.041188,-7550.100608,-79673.931792
845.553503,-296.082377,592.164754,-78907.836294
845.556036,-296.082377,-6513.812290,-80899.684589
845.558569,148.041188,-5921.647536,-79214.274493
845.561102,-888.247130,-10658.965565,-79980.369991
845.563646,-148.041188,-7698.141797,-79673.931792
845.566190,-148.041188,-9178.553681,-78141.740796
845.568735,-296.082377,-4293.194464,-78907.836294
845.571279,740.205942,-2664.741391,-78294.959896
845.573823,148.041188,1776.494261,-77988.521696
845.576367,-296.082377,296.082377,-79673.931792
845.578911,148.041188,-6365.771101,-78754.617194
845.581456,-148.041188,-5625.565159,-78907.836294
845.584000,-1036.288319,-1332.370696,-78907.836294
845.586544,-592.164754,3552.988522,-79214.274493
845.589088,-444.123565,8438.347739,-79214.274493
845.591632,0.000000,7698.141797,-79061.055394
845.594176,444.123565,7846.182985,-79367.493593
845.596721,-444.123565,3849.070898,-78907.836294
845.599265,-1332.370696,-2516.700203,-79061.055394
845.601809,-592.164754,-148.041188,-78907.836294
845.604353,-888.247130,-4589.276840,-80593.246390
845.606897,444.123565,2368.659014,-78448.178995
845.609442,-148.041188,2664.741391,-79214.274493
845.611986,888.247130,5921.647536,-78601.398095
845.614530,-592.164754,1776.494261,-78294.959896
845.617074,-296.082377,9030.512492,-76915.987999
845.619618,-888.247130,-8882.471304,-78601.398095
845.622163,0.000000,3108.864956,-77682.083497
845.624707,-1332.370696,-296.082377,-77069.207099
845.627251,0.000000,1924.535449,-80746.465489
845.629795,-888.247130,2812.782580,-79367.493593
845.632339,1036.288319,7105.977043,-79673.931792
845.634883,-592.164754,7550.100608,-79214.274493
845.637428,444.123565,4737.318029,-79673.931792
845.639972,-296.082377,3552.988522,-78907.836294
845.642516,-1036.288319,-888.247130,-78448.178995
845.645060,-592.164754,-2368.659014,-79214.274493
845.647604,0.000000,-3997.112087,-79214.274493
845.650149,-444.123565,3256.906145,-77988.521696
845.652693,-444.123565,4145.153275,-80593.246390
845.655237,-148.041188,1184.329507,-79673.931792
845.657781,740.205942,-3997.112087,-79061.055394
845.660325,-148.041188,-9622.677246,-78601.398095
845.662869,-740.205942,-9918.759623,-79214.274493
845.665423,-148.041188,-11843.295072,-79367.493593
845.667977,-888.247130,-7105.977043,-79214.274493
845.670530,0.000000,-5625.565159,-78294.959896
845.673084,148.041188,1628.453072,-79367.493593
845.675637,-444.123565,-1036.288319,-78448.178995
845.678191,-1184.329507,-740.205942,-79827.150892
845.680744,-148.041188,-7550.100608,-79673.931792
845.683298,-1776.494261,-8586.388927,-79367.493593
845.685852,1184.329507,-6661.853478,-78907.836294
845.688405,-444.123565,-7846.182985,-77682.083497
845.690959,-148.041188,-3701.029710,-78141.740796
845.693512,-740.205942,296.082377,-78754.617194
845.696066,-444.123565,-8734.430116,-81206.122788
845.698619,0.000000,1036.288319,-79367.493593
845.701173,1628.453072,-8586.388927,-78448.178995
845.703727,-740.205942,-7846.182985,-79061.055394
845.706280,444.123565,-8438.347739,-79980.369991
845.708834,-1480.411884,-9178.553681,-80746.465489
845.711387,296.082377,-7550.100608,-77988.521696
845.713941,-592.164754,-7994.224174,-78754.617194
845.716494,1184.329507,-592.164754,-77988.521696
845.719048,-740.205942,-148.041188,-79520.712692
845.721602,-444.123565,740.205942,-78448.178995
845.724155,-296.082377,-7698.141797,-77069.207099
845.726709,592.164754,-3701.029710,-79061.055394
845.729262,-740.205942,-1184.329507,-79673.931792
845.731816,-1184.329507,5773.606348,-79367.493593
845.734369,-888.247130,6809.894666,-79367.493593
845.736923,-296.082377,8290.306550,-78754.617194
845.739477,592.164754,5625.565159,-79061.055394
845.742030,0.000000,2220.617826,-78907.836294
845.744584,-1332.370696,-1628.453072,-79367.493593
845.747137,1480.411884,-592.164754,-79673.931792
845.749691,-1480.411884,-1332.370696,-79673.931792
845.752244,1036.288319,3552.988522,-80133.589091
845.754798,-592.164754,2368.659014,-78141.740796
845.757352,592.164754,9030.512492,-77988.521696
845.759905,-740.205942,2812.782580,-81512.560987
845.762459,444.123565,-1480.411884,-79673.931792
845.765012,-1036.288319,2368.659014,-78294.959896
845.767572,0.000000,-3108.864956,-79520.712692
845.770131,-592.164754,-888.247130,-78294.959896
845.772690,-296.082377,3256.906145,-78448.178995
845.775250,0.000000,6365.771101,-79520.712692
845.777809,-888.247130,8438.347739,-79367.493593
845.780368,148.041188,6069.688724,-78601.398095
845.782928,1776.494261,6069.688724,-80133.589091
845.785487,-1332.370696,592.164754,-79367.493593
845.788046,148.041188,-1480.411884,-78601.398095
845.790606,-1036.288319,-3849.070898,-79214.274493
845.793165,-296.082377,296.082377,-78448.178995
845.795724,592.164754,3108.864956,-80133.589091
845.798284,-1036.288319,1480.411884,-79367.493593
845.800843,-1036.288319,-3256.906145,-78448.178995
845.803402,296.082377,-9030.512492,-79367.493593
845.805962,-592.164754,-9474.636058,-79827.150892
845.808521,-148.041188,-10658.965565,-79827.150892
845.811080,-1776.494261,-7846.182985,-79214.274493
845.813640,148.041188,-5181.441594,-78294.959896
845.816199,-1184.329507,-888.247130,-78754.617194
845.818758,148.041188,-1628.453072,-79367.493593
845.821318,-1036.288319,-2220.617826,-78907.836294
845.823877,0.000000,-7105.977043,-78601.398095
845.826437,-1628.453072,-7846.182985,-78601.398095
845.828996,296.082377,-3108.864956,-79827.150892
845.831555,-740.205942,-9918.759623,-78601.398095
845.834115,-148.041188,-8734.430116,-78601.398095
845.836674,-888.247130,2072.576638,-77835.302597
845.839233,-592.164754,-4737.318029,-80746.465489
845.841793,296.082377,-2220.617826,-80746.465489
845.844352,444.123565,-7254.018232,-79980.369991
845.846911,148.041188,-9030.512492,-78754.617194
845.849471,0.000000,-9622.677246,-78294.959896
845.852030,296.082377,-9474.636058,-78907.836294
845.854589,-740.205942,-7846.182985,-79673.931792
845.857149,148.041188,-5181.441594,-79980.369991
845.859708,-444.123565,-740.205942,-78294.959896
845.862267,-296.082377,-148.041188,-79520.712692
845.864827,-1480.411884,-3256.906145,-79980.369991
845.867386,-296.082377,-6069.688724,-78601.398095
845.869950,0.000000,1036.288319,-77682.083497
845.872514,740.205942,888.247130,-78448.178995
845.875078,-1480.411884,6809.894666,-79520.712692
845.877642,-148.041188,6809.894666,-79367.493593
845.880206,-444.123565,8586.388927,-79214.274493
845.882770,-296.082377,2664.741391,-79061.055394
845.885333,-592.164754,1184.329507,-78754.617194
845.887897,-1036.288319,-1776.494261,-79980.369991
845.890461,148.041188,-2072.576638,-79827.150892
845.893025,-1628.453072,-148.041188,-79520.712692
845.895589,1332.370696,4293.194464,-79827.150892
845.898153,-592.164754,3404.947333,-79367.493593
845.900717,148.041188,3256.906145,-81359.341888
845.903281,-888.247130,-148.041188,-78907.836294
845.905845,296.082377,3552.988522,-78601.398095
845.908409,444.123565,-3701.029710,-79980.369991
845.910973,1036.288319,148.041188,-79061.055394
845.913537,-1036.288319,740.205942,-79980.369991
845.916101,296.082377,7105.977043,-78294.959896
845.918664,148.041188,7105.977043,-79061.055394
845.921228,1332.370696,9474.636058,-78294.959896
845.923792,888.247130,5033.400406,-79367.493593
845.926356,-148.041188,-148.041188,-79214.274493
845.928920,-888.247130,-1924.535449,-79061.055394
845.931484,-1036.288319,-2664.741391,-79214.274493
845.934048,0.000000,0.000000,-79520.712692
845.936612,148.041188,3701.029710,-79520.712692
845.939176,-296.082377,148.041188,-78754.617194
845.941740,-148.041188,-5033.400406,-78754.617194
845.944304,-444.123565,-10955.047942,-79673.931792
845.946868,148.041188,-10066.800811,-79673.931792
845.949432,-148.041188,-9918.759623,-79214.274493
845.951999,-148.041188,-6661.853478,-79980.369991
845.954567,-296.082377,-4441.235652,-79367.493593
845.957134,-592.164754,444.123565,-79214.274493
845.959702,148.041188,-2220.617826,-79214.274493
845.962269,-1036.288319,148.041188,-79061.055394
845.964837,0.000000,-3256.906145,-79214.274493
845.967405,-740.205942,-6513.812290,-80133.589091
845.969972,0.000000,-12435.459826,-79673.931792
845.972540,444.123565,-296.082377,-76149.892501
845.975107,740.205942,-5625.565159,-79980.369991
845.977675,-1036.288319,-3701.029710,-81206.122788
845.980242,-1036.288319,-444.123565,-78907.836294
845.982810,444.123565,-5477.523971,-78141.740796
845.985378,-148.041188,-4589.276840,-78907.836294
845.987945,-148.041188,-9474.636058,-78448.178995
845.990513,-888.247130,-8586.388927,-78448.178995
845.993080,-1184.329507,-13175.665768,-80286.808190
845.995648,740.205942,-4145.153275,-78754.617194
845.998215,888.247130,-3701.029710,-78907.836294
846.000783,-592.164754,1332.370696,-79061.055394
846.003351,0.000000,-2220.617826,-79827.150892
846.005918,296.082377,-5033.400406,-79214.274493
846.008486,-592.164754,-3108.864956,-79214.274493
846.011053,1036.288319,3404.947333,-78294.959896
846.013621,-592.164754,5773.606348,-79673.931792
846.016188,-148.041188,7550.100608,-78907.836294
846.018756,-888.247130,6957.935855,-79673.931792
846.021324,592.164754,4145.153275,-78907.836294
846.023891,-444.123565,1628.453072,-78907.836294
846.026459,-740.205942,-740.205942,-79367.493593
846.029026,-444.123565,-296.082377,-79673.931792
846.031594,-148.041188,-740.205942,-78601.398095
846.034161,444.123565,5033.400406,-79061.055394
846.036729,1184.329507,1924.535449,-80746.465489
846.039297,-592.164754,7254.018232,-77682.083497
846.041864,-444.123565,4145.153275,-78294.959896
846.044432,-444.123565,-592.164754,-78907.836294
846.046999,-740.205942,-3552.988522,-79827.150892
846.049567,444.123565,1776.494261,-78754.617194
846.052134,-444.123565,2072.576638,-79061.055394
846.054703,-1036.288319,5921.647536,-77375.645298
846.057274,-148.041188,8438.347739,-78754.617194
846.059844,-444.123565,6661.853478,-79367.493593
846.062415,740.205942,5181.441594,-79673.931792
846.064985,-740.205942,2516.700203,-79061.055394
846.067556,-1036.288319,-740.205942,-79061.055394
846.070126,-1480.411884,-3108.864956,-79061.055394
846.072697,444.123565,2368.659014,-79214.274493
846.075267,1184.329507,2664.741391,-79520.712692
846.077838,296.082377,-1924.535449,-79214.274493
846.080408,-1036.288319,-5477.523971,-79520.712692
846.082979,-296.082377,-9326.594869,-79367.493593
846.085549,-592.164754,-9030.512492,-78601.398095
846.088120,888.247130,-10658.965565,-78907.836294
846.090690,0.000000,-6069.688724,-78601.398095
846.093261,148.041188,-4737.318029,-79673.931792
846.095831,-1480.411884,0.000000,-78754.617194
846.098402,888.247130,-2368.659014,-79061.055394
846.100972,296.082377,-2960.823768,-78294.959896
846.103543,-148.041188,-4293.194464,-78754.617194
846.106113,-1184.329507,-5773.606348,-79520.712692
846.108684,444.123565,-12139.377449,-79061.055394
846.111254,-1036.288319,-7254.018232,-79980.369991
846.113825,0.000000,1480.411884,-77988.521696
846.116395,148.041188,-6809.894666,-80899.684589
846.118966,-444.123565,-2368.659014,-78754.617194
846.121536,444.123565,-7105.977043,-78294.959896
846.124107,740.205942,-5181.441594,-79827.150892
846.126677,-1480.411884,-12287.418637,-79367.493593
846.129248,-1036.288319,-9474.636058,-79214.274493
846.131818,-2072.576638,-9326.594869,-78907.836294
846.134389,1184.329507,-4589.276840,-79980.369991
846.136959,-1036.288319,-3256.906145,-79827.150892
846.139530,0.000000,1924.535449,-79061.055394
846.142100,0.000000,-3256.906145,-79061.055394
846.144670,-888.247130,-2812.782580,-78448.178995
846.147241,-888.247130,1332.370696,-78907.836294
846.149811,-296.082377,4441.235652,-79827.150892
846.152382,-444.123565,6365.771101,-79673.931792
846.154952,0.000000,5033.400406,-79061.055394
846.157524,0.000000,6957.935855,-78294.959896
846.160096,-444.123565,3552.988522,-78601.398095
846.162667,148.041188,0.000000,-79367.493593
846.165239,-296.082377,-1628.453072,-79367.493593
846.167811,0.000000,-888.247130,-79061.055394
846.170382,-444.123565,2664.741391,-79673.931792
846.172954,444.123565,2812.782580,-78448.178995
846.175526,-444.123565,8290.306550,-78448.178995
846.178097,-592.164754,3997.112087,-78601.398095
846.180669,-1776.494261,-3552.988522,-79520.712692
846.183241,444.123565,2516.700203,-79827.150892
846.185812,-592.164754,-148.041188,-78294.959896
846.188384,444.123565,296.082377,-77528.864398
846.190955,-888.247130,6957.935855,-77682.083497
846.193527,148.041188,7254.018232,-79367.493593
846.196099,-1776.494261,7698.141797,-78907.836294
846.198670,2220.617826,6069.688724,-79520.712692
846.201242,740.205942,3108.864956,-78754.617194
846.203814,-2516.700203,-1184.329507,-79214.274493
846.206385,-1480.411884,-2072.576638,-79367.493593
846.208957,-296.082377,-1184.329507,-78448.178995
846.211529,296.082377,3256.906145,-79367.493593
846.214100,592.164754,-3552.988522,-79520.712692
846.216672,-148.041188,-5921.647536,-78907.836294
846.219244,-1184.329507,-9622.677246,-77682.083497
846.221815,592.164754,-9326.594869,-79367.493593
846.224387,0.000000,-10807.006753,-79520.712692
846.226958,740.205942,-5921.647536,-79214.274493
846.229530,-1036.288319,-5477.523971,-78601.398095
846.232102,-1036.288319,592.164754,-77375.645298
846.234673,-148.041188,-2368.659014,-79061.055394
846.237245,-592.164754,-5329.482782,-78754.617194
846.239817,-888.247130,-6957.935855,-78294.959896
846.242388,296.082377,-4145.153275,-78448.178995
846.244960,-592.164754,-8438.347739,-78448.178995
846.247532,-148.041188,-8734.430116,-79520.712692
846.250103,-888.247130,1332.370696,-78448.178995
846.252675,-444.123565,-4441.235652,-77375.645298
846.255247,-740.205942,-2072.576638,-80286.808190
846.257818,-296.082377,-7550.100608,-79520.712692
846.260391,1480.411884,-8438.347739,-79673.931792
846.262963,-148.041188,-9770.718434,-78448.178995
846.265536,444.123565,-10510.924376,-78907.836294
846.268109,-740.205942,-9770.718434,-79520.712692
846.270681,-148.041188,-2960.823768,-80133.589091
846.273254,444.123565,-1036.288319,-78907.836294
846.275827,888.247130,-1924.535449,-79520.712692
846.278399,-444.123565,-3404.947333,-77835.302597
846.280972,-148.041188,-888.247130,-79214.274493
846.283545,-444.123565,3849.070898,-79367.493593
846.286117,592.164754,5773.606348,-79673.931792
846.288690,148.041188,5921.647536,-79061.055394
846.291263,-740.205942,8290.306550,-77682.083497
846.293835,-1036.288319,1480.411884,-80286.808190
846.296408,-148.041188,1776.494261,-78754.617194
846.298981,0.000000,-1924.535449,-79827.150892
846.301553,-740.205942,-888.247130,-79367.493593
846.304126,-1036.288319,592.164754,-79061.055394
846.306699,-592.164754,2664.741391,-79061.055394
846.309271,888.247130,11547.212695,-77528.864398
846.311844,-888.247130,9326.594869,-78141.740796
846.314417,-740.205942,-8586.388927,-81972.218286
846.316989,-592.164754,10658.965565,-76456.330700
846.319562,-592.164754,1036.288319,-77528.864398
846.322135,888.247130,2220.617826,-79827.150892
846.324707,-1480.411884,4293.194464,-79061.055394
846.327280,-296.082377,4737.318029,-80746.465489
846.329853,-1332.370696,6365.771101,-78907.836294
846.332425,1628.453072,6513.812290,-79214.274493
846.334998,444.123565,3256.906145,-78754.617194
846.337571,296.082377,-592.164754,-78141.740796
846.340143,-1184.329507,-1332.370696,-79980.369991
846.342716,740.205942,-444.123565,-79827.150892
846.345289,592.164754,4293.194464,-79061.055394
846.347861,1332.370696,-5181.441594,-79827.150892
846.350434,-1776.494261,-6069.688724,-78601.398095
846.353007,-1036.288319,-11991.336260,-79520.712692
846.355579,-148.041188,-8142.265362,-79827.150892
846.358152,148.041188,-10362.883188,-80133.589091
846.360725,1036.288319,-5329.482782,-79520.712692
846.363298,-148.041188,-2368.659014,-77988.521696
846.365872,-592.164754,0.000000,-78754.617194
846.368446,148.041188,-2960.823768,-79827.150892
846.371019,888.247130,-148.041188,-79827.150892
846.373593,148.041188,-7550.100608,-79520.712692
846.376166,-740.205942,-13471.748144,-81052.903688
846.378740,-444.123565,-3108.864956,-78907.836294
846.381314,296.082377,-6661.853478,-79520.712692
846.383887,-444.123565,-2072.576638,-78294.959896
846.386461,-888.247130,148.041188,-77375.645298
846.389035,-592.164754,-5477.523971,-78448.178995
846.391608,148.041188,-5625.565159,-79061.055394
846.394182,-1332.370696,-11547.212695,-78294.959896
846.396756,1480.411884,-12879.583391,-79214.274493
846.399329,-1332.370696,-10214.842000,-79367.493593
846.401903,740.205942,-2072.576638,-79061.055394
846.404476,-1776.494261,-2368.659014,-79673.931792
846.407050,296.082377,296.082377,-78907.836294
846.409624,1036.288319,-5773.606348,-79520.712692
846.412197,-592.164754,-1480.411884,-77375.645298
846.414771,-2072.576638,3404.947333,-78907.836294
846.417345,-592.164754,6217.729913,-78754.617194
846.419918,1036.288319,7402.059420,-79061.055394
846.422492,-740.205942,6069.688724,-78754.617194
846.425065,148.041188,3108.864956,-78754.617194
846.427639,-740.205942,2220.617826,-79367.493593
846.430213,0.000000,-1332.370696,-79214.274493
846.432786,148.041188,1036.288319,-78907.836294
846.435360,592.164754,0.000000,-78601.398095
846.437934,-444.123565,3108.864956,-79367.493593
846.440507,444.123565,2368.659014,-79214.274493
846.443081,444.123565,7994.224174,-77988.521696
846.445654,0.000000,4293.194464,-78907.836294
846.448228,-1036.288319,2220.617826,-79827.150892
846.450802,-592.164754,-5033.400406,-81818.999186
846.453375,296.082377,2960.823768,-77528.864398
846.455949,592.164754,148.041188,-79214.274493
846.458523,-444.123565,8734.430116,-77222.426198
846.461096,-444.123565,7402.059420,-78907.836294
846.463670,-148.041188,7698.141797,-79673.931792
846.466243,-592.164754,1184.329507,-80746.465489
846.468816,-148.041188,1924.535449,-78754.617194
846.471389,-740.205942,-2812.782580,-77835.302597
846.473962,-148.041188,3108.864956,-77682.083497
846.476535,-1480.411884,2664.741391,-79214.274493
846.479108,1184.329507,-3552.988522,-78907.836294
846.481681,-444.123565,-10362.883188,-78754.617194
846.484255,-1036.288319,-11547.212695,-78294.959896
846.486828,-444.123565,-9918.759623,-80133.589091
846.489401,-296.082377,-7994.224174,-79520.712692
846.491974,148.041188,-4737.318029,-79980.369991
846.494547,0.000000,-2664.741391,-79367.493593
846.497120,-740.205942,-1036.288319,-77988.521696
846.499693,-444.123565,-2072.576638,-78754.617194
846.502266,-296.082377,-6661.853478,-78294.959896
846.504839,-592.164754,-5773.606348,-79061.055394
846.507412,-740.205942,-10066.800811,-80133.589091
846.509985,148.041188,-6661.853478,-79520.712692
846.512559,296.082377,-5181.441594,-77988.521696
846.515132,296.082377,-296.082377,-78294.959896
846.517705,-888.247130,-1332.370696,-78907.836294
846.520278,-592.164754,-3404.947333,-79214.274493
846.522851,296.082377,-8290.306550,-79061.055394
846.525424,592.164754,-13175.665768,-78907.836294
846.527997,444.123565,-10510.924376,-79061.055394
846.530570,-444.123565,-10362.883188,-79214.274493
846.533143,-1036.288319,-1628.453072,-79214.274493
846.535716,1184.329507,-1332.370696,-79214.274493
846.538290,296.082377,-592.164754,-79520.712692
846.540863,-592.164754,-3997.112087,-79214.274493
846.543436,-296.082377,-444.123565,-79214.274493
846.546009,-592.164754,2960.823768,-79214.274493
846.548582,888.247130,7402.059420,-78907.836294
846.551155,592.164754,6217.729913,-79827.150892
846.553728,-148.041188,7105.977043,-78601.398095
846.556301,-444.123565,1776.494261,-79367.493593
846.558874,-148.041188,1184.329507,-78601.398095
846.561447,1184.329507,-888.247130,-79673.931792
846.564020,-148.041188,-444.123565,-79673.931792
846.566594,-592.164754,2516.700203,-78907.836294
846.569166,-444.123565,6809.894666,-79367.493593
846.571738,592.164754,2664.741391,-79980.369991
846.574311,1184.329507,-888.247130,-80133.589091
846.576883,-296.082377,7402.059420,-77222.426198
846.579456,148.041188,8290.306550,-76762.768900
846.582028,0.000000,740.205942,-79061.055394
846.584601,148.041188,1480.411884,-78907.836294
846.587173,-148.041188,2812.782580,-79061.055394
846.589746,-444.123565,5625.565159,-80440.027290
846.592318,-740.205942,8438.347739,-79673.931792
846.594891,740.205942,7994.224174,-79520.712692
846.597463,-296.082377,296.082377,-79367.493593
846.600035,-740.205942,1628.453072,-79520.712692
846.602608,-1924.535449,-1332.370696,-78754.617194
846.605180,444.123565,1628.453072,-78754.617194
846.607753,296.082377,-4293.194464,-78448.178995
846.610325,1628.453072,-6217.729913,-78141.740796
846.612898,-2072.576638,-11843.295072,-79827.150892
846.615470,-1184.329507,-9474.636058,-80133.589091
846.618043,-888.247130,-9474.636058,-80286.808190
846.620615,1036.288319,-4293.194464,-79061.055394
846.623188,-444.123565,-3256.906145,-80593.246390
846.625760,-148.041188,-444.123565,-78754.617194
846.628333,-888.247130,-1924.535449,-78294.959896
846.630905,-148.041188,-6809.894666,-78448.178995
846.633477,148.041188,-5181.441594,-79214.274493
846.636050,-148.041188,-3701.029710,-80593.246390
846.638622,-592.164754,-17024.736666,-79827.150892
846.641195,0.000000,-8142.265362,-81206.122788
846.643767,740.205942,4441.235652,-76609.549800
846.646340,-592.164754,-7105.977043,-80899.684589
846.648912,-740.205942,-2812.782580,-78601.398095
846.651485,-148.041188,-11399.171507,-79827.150892
846.654057,1776.494261,-6513.812290,-78754.617194
846.656630,740.205942,-13619.789333,-79980.369991
846.659202,-888.247130,-6661.853478,-79214.274493
846.661775,-2072.576638,-5181.441594,-78907.836294
846.664347,0.000000,-1184.329507,-79827.150892
846.666919,888.247130,-1924.535449,-79520.712692
846.669492,1184.329507,-3552.988522,-78754.617194
846.672064,-1036.288319,-148.041188,-77988.521696
846.674636,-592.164754,6513.812290,-78294.959896
846.677209,-592.164754,6809.894666,-78754.617194
846.679781,888.247130,7550.100608,-79367.493593
846.682353,-296.082377,5477.523971,-77835.302597
846.684925,296.082377,1332.370696,-78601.398095
846.687498,-592.164754,-296.082377,-79061.055394
846.690070,1184.329507,-740.205942,-78907.836294
846.692642,-296.082377,-1776.494261,-81052.903688
846.695214,148.041188,3849.070898,-79827.150892
846.697787,148.041188,1628.453072,-78294.959896
846.700359,740.205942,9770.718434,-80133.589091
846.702931,296.082377,4145.153275,-78601.398095
846.705503,0.000000,-148.041188,-79827.150892
846.708076,-1184.329507,6513.812290,-77222.426198
846.710648,0.000000,-1480.411884,-78907.836294
846.713220,888.247130,3108.864956,-79367.493593
846.715792,-592.164754,1924.535449,-78448.178995
846.718365,148.041188,12139.377449,-78294.959896
846.720937,-1628.453072,4885.359217,-79061.055394
846.723509,1480.411884,5329.482782,-78907.836294
846.726081,-888.247130,444.123565,-79214.274493
846.728654,-1480.411884,-1480.411884,-79673.931792
846.731226,444.123565,0.000000,-77988.521696
846.733798,-148.041188,1628.453072,-79061.055394
846.736370,444.123565,-7550.100608,-79673.931792
846.738943,444.123565,-11695.253884,-78601.398095
846.741515,-888.247130,-10658.965565,-78601.398095
846.744087,-1036.288319,-8586.388927,-79214.274493
846.746659,740.205942,-5329.482782,-79520.712692
846.749232,-740.205942,-4145.153275,-79520.712692
846.751804,0.000000,-888.247130,-78907.836294
846.754376,-592.164754,-1184.329507,-78754.617194
846.756948,-592.164754,-6809.894666,-78448.178995
846.759521,-592.164754,-8882.471304,-79061.055394
846.762093,444.123565,-592.164754,-79061.055394
846.764665,-1332.370696,-4293.194464,-76609.549800
846.767237,-296.082377,-1332.370696,-79827.150892
846.769810,-148.041188,-9178.553681,-81359.341888
846.772382,296.082377,-7550.100608,-79061.055394
846.774953,-444.123565,-4145.153275,-78601.398095
846.777524,-592.164754,-4885.359217,-78754.617194
846.780095,444.123565,-9622.677246,-79367.493593
846.782666,740.205942,-8882.471304,-78601.398095
846.785237,-740.205942,-9474.636058,-78907.836294
846.787808,-1332.370696,-5773.606348,-79367.493593
846.790380,148.041188,-1480.411884,-79367.493593
846.792951,444.123565,-2072.576638,-79980.369991
846.795522,444.123565,-3701.029710,-78141.740796
846.798093,-1776.494261,4441.235652,-78448.178995
846.800664,-148.041188,5033.400406,-78907.836294
846.803235,-1332.370696,7846.182985,-79673.931792
846.805806,1776.494261,5921.647536,-79520.712692
846.808377,-148.041188,5625.565159,-78141.740796
846.810948,-2072.576638,2960.823768,-76762.768900
846.813519,-1332.370696,-1628.453072,-78294.959896
846.816090,888.247130,-1776.494261,-79520.712692
846.818661,740.205942,592.164754,-80593.246390
846.821233,-592.164754,2812.782580,-78294.959896
846.823804,0.000000,8290.306550,-77528.864398
846.826375,-296.082377,2516.700203,-78754.617194
846.828946,0.000000,592.164754,-80593.246390
846.831517,0.000000,2664.741391,-79520.712692
846.834088,-592.164754,3108.864956,-78907.836294
846.836659,888.247130,888.247130,-78294.959896
846.839230,444.123565,3701.029710,-79214.274493
846.841801,-1036.288319,5625.565159,-79673.931792
846.844372,0.000000,7105.977043,-79520.712692
846.846943,148.041188,6217.729913,-79367.493593
846.849515,-592.164754,1776.494261,-80286.808190
846.852086,0.000000,1332.370696,-79673.931792
846.854657,-1924.535449,-148.041188,-79520.712692
846.857228,296.082377,740.205942,-78141.740796
846.859799,296.082377,-5773.606348,-79520.712692
846.862370,296.082377,-8142.265362,-78754.617194
846.864941,-1036.288319,-10510.924376,-79520.712692
846.867512,-888.247130,-9030.512492,-78448.178995
846.870083,-888.247130,-8438.347739,-79214.274493
846.872654,1036.288319,-3997.112087,-80286.808190
846.875225,148.041188,-2664.741391,-80286.808190
846.877796,-148.041188,444.123565,-78141.740796
846.880366,-592.164754,-1776.494261,-78448.178995
846.882937,296.082377,-6365.771101,-77988.521696
846.885507,296.082377,-5033.400406,-77988.521696
846.888077,740.205942,-5921.647536,-77375.645298
846.890648,-1036.288319,-10214.842000,-78754.617194
846.893218,0.000000,-740.205942,-78601.398095
846.895789,444.123565,-7550.100608,-80440.027290
846.898359,-592.164754,-1184.329507,-80440.027290
846.900929,-592.164754,-6957.935855,-78907.836294
846.903500,0.000000,-6069.688724,-77835.302597
846.906070,2220.617826,-12583.501014,-77988.521696
846.908640,-148.041188,-10658.965565,-79520.712692
846.911211,-1628.453072,-5477.523971,-77835.302597
846.913781,-148.041188,-5181.441594,-78601.398095
846.916352,-148.041188,-888.247130,-78907.836294
846.918922,1628.453072,-3404.947333,-79520.712692
846.921492,-1480.411884,296.082377,-79827.150892
846.924063,148.041188,5625.565159,-79061.055394
846.926633,-1480.411884,8142.265362,-78601.398095
846.929204,1924.535449,5921.647536,-80133.589091
846.931774,148.041188,7846.182985,-79520.712692
846.934344,296.082377,1776.494261,-78294.959896
846.936915,-2368.659014,-740.205942,-77835.302597
846.939485,888.247130,-2368.659014,-78754.617194
846.942056,296.082377,1480.411884,-79520.712692
846.944626,-592.164754,740.205942,-79827.150892
846.947196,-444.123565,5477.523971,-77988.521696
846.949767,-444.123565,9030.512492,-76915.987999
846.952337,444.123565,3701.029710,-79214.274493
846.954908,-888.247130,4589.276840,-79367.493593
846.957478,-444.123565,-2072.576638,-80899.684589
846.960048,148.041188,5477.523971,-79673.931792
846.962619,592.164754,-444.123565,-78754.617194
846.965189,-888.247130,8142.265362,-77222.426198
846.967759,0.000000,3997.112087,-79061.055394
846.970330,-740.205942,7402.059420,-79061.055394
846.972900,148.041188,1332.370696,-78448.178995
846.975471,1036.288319,1036.288319,-79061.055394
846.978041,-1480.411884,-148.041188,-78448.178995
846.980611,-740.205942,3849.070898,-79061.055394
846.983181,-296.082377,-4885.359217,-79827.150892
846.985751,444.123565,-7846.182985,-78601.398095
846.988321,-1184.329507,-14656.077652,-79367.493593
846.990891,-296.082377,-10955.047942,-79520.712692
846.993461,-2368.659014,-10658.965565,-79367.493593
846.996031,1480.411884,-2072.576638,-78601.398095
846.998601,-740.205942,-2072.576638,-79520.712692
847.001171,296.082377,1628.453072,-78141.740796
847.003741,-1776.494261,-4293.194464,-80286.808190
847.006311,1332.370696,-2812.782580,-78448.178995
847.008881,-1332.370696,-12583.501014,-79367.493593
847.011451,-148.041188,-6365.771101,-79061.055394
847.014021,-1036.288319,-3552.988522,-78754.617194
847.016591,-148.041188,-6365.771101,-79061.055394
847.019161,0.000000,-4589.276840,-78601.398095
847.021731,0.000000,-4737.318029,-80133.589091
847.024302,-740.205942,-6069.688724,-79367.493593
847.026872,0.000000,-10214.842000,-79520.712692
847.029442,0.000000,-10658.965565,-78907.836294
847.032012,296.082377,-9326.594869,-78294.959896
847.034582,-2072.576638,-5181.441594,-78601.398095
847.037152,-148.041188,-2960.823768,-79367.493593
847.039722,740.205942,-4737.318029,-80593.246390
847.042292,1480.411884,-2960.823768,-80593.246390
847.044862,-1184.329507,6513.812290,-78754.617194
847.047432,-592.164754,7254.018232,-78907.836294
847.050002,-888.247130,9622.677246,-79367.493593
847.052572,1184.329507,5181.441594,-80286.808190
847.055142,148.041188,5033.400406,-79214.274493
847.057712,-1776.494261,740.205942,-78448.178995
847.060282,-444.123565,-444.123565,-77682.083497
847.062851,592.164754,-3849.070898,-79214.274493
847.065420,148.041188,-444.123565,-79673.931792
847.067989,-1184.329507,3552.988522,-79673.931792
847.070558,0.000000,11991.336260,-77375.645298
847.073126,-1332.370696,592.164754,-79214.274493
847.075695,-444.123565,2368.659014,-80899.684589
847.078264,-592.164754,8438.347739,-78601.398095
847.080833,0.000000,-148.041188,-80593.246390
847.083402,0.000000,3404.947333,-77375.645298
847.085971,-592.164754,444.123565,-79673.931792
847.088539,-888.247130,7254.018232,-78601.398095
847.091108,148.041188,5329.482782,-79673.931792
847.093677,740.205942,5921.647536,-78141.740796
847.096246,1184.329507,2368.659014,-78754.617194
847.098815,-1776.494261,2664.741391,-79980.369991
847.101383,0.000000,0.000000,-79061.055394
847.103952,148.041188,-1184.329507,-79214.274493
847.106521,888.247130,-10955.047942,-79061.055394
847.109090,-740.205942,-13323.706956,-80593.246390
847.111659,-888.247130,-11103.089130,-79061.055394
847.114228,-740.205942,-7846.182985,-78448.178995
847.116796,-148.041188,-6217.729913,-78294.959896
847.119365,444.123565,-1184.329507,-79061.055394
847.121934,0.000000,-444.123565,-78907.836294
847.124503,0.000000,888.247130,-78294.959896
847.127072,-148.041188,-4589.276840,-79061.055394
847.129641,296.082377,-5033.400406,-77682.083497
847.132209,296.082377,-13175.665768,-80133.589091
847.134778,-296.082377,-6661.853478,-79673.931792
847.137347,-740.205942,-11103.089130,-80899.684589
847.139916,740.205942,1036.288319,-77988.521696
847.142485,1332.370696,-4441.235652,-77222.426198
847.145053,-1628.453072,-2220.617826,-77988.521696
847.147622,-296.082377,-10510.924376,-79367.493593
847.150191,-296.082377,-11547.212695,-79367.493593
847.152760,-1184.329507,-9770.718434,-78294.959896
847.155329,-1924.535449,-6217.729913,-79520.712692
847.157898,-740.205942,-2072.576638,-78907.836294
847.160466,740.205942,-4885.359217,-79214.274493
847.163035,-888.247130,592.164754,-78754.617194
847.165603,-1776.494261,5477.523971,-79061.055394
847.168171,-148.041188,9918.759623,-78754.617194
847.170739,-148.041188,10362.883188,-79214.274493
847.173307,148.041188,5773.606348,-79367.493593
847.175875,-592.164754,2220.617826,-79214.274493
847.178443,-1036.288319,444.123565,-77375.645298
847.181011,-592.164754,-3552.988522,-79214.274493
847.183579,-148.041188,-592.164754,-79980.369991
847.186147,296.082377,444.123565,-79520.712692
847.188715,-296.082377,9918.759623,-77988.521696
847.191283,-1184.329507,2220.617826,-81206.122788
847.193851,148.041188,148.041188,-79673.931792
847.196419,148.041188,2960.823768,-79061.055394
847.198987,-148.041188,6069.688724,-78294.959896
847.201555,-888.247130,296.082377,-78448.178995
847.204123,592.164754,4293.194464,-78754.617194
847.206691,296.082377,2812.782580,-80133.589091
847.209259,-444.123565,6069.688724,-79214.274493
847.211827,592.164754,8438.347739,-77988.521696
847.214395,740.205942,6365.771101,-79214.274493
847.216963,-740.205942,592.164754,-78907.836294
847.219531,148.041188,1776.494261,-78294.959896
847.222099,-740.205942,-1628.453072,-79673.931792
847.224667,592.164754,-8734.430116,-78294.959896
847.227235,592.164754,-13323.706956,-80286.808190
847.229803,-148.041188,-12879.583391,-78907.836294
847.232371,-1776.494261,-9030.512492,-79214.274493
847.234939,740.205942,-6809.894666,-78907.836294
847.237507,-888.247130,-1628.453072,-79214.274493
847.240075,740.205942,0.000000,-79367.493593
847.242643,-1332.370696,1628.453072,-78294.959896
847.245211,0.000000,-6809.894666,-79061.055394
847.247779,-1184.329507,-4441.235652,-77528.864398
847.250347,740.205942,-11991.336260,-80133.589091
847.252915,-1776.494261,-7846.182985,-80286.808190
847.255483,1332.370696,148.041188,-77835.302597
847.258051,1036.288319,-9770.718434,-80133.589091
847.260619,-296.082377,-2516.700203,-79520.712692
847.263187,-740.205942,-7105.977043,-79980.369991
847.265755,592.164754,-5181.441594,-78907.836294
847.268323,148.041188,-12435.459826,-79061.055394
847.270890,592.164754,-9030.512492,-77069.207099
847.273457,-1480.411884,-8586.388927,-79061.055394
847.276025,-444.123565,-3701.029710,-79673.931792
847.278592,444.123565,-6069.688724,-79367.493593
847.281159,-296.082377,-592.164754,-78907.836294
847.283727,0.000000,7550.100608,-79980.369991
847.286294,-1184.329507,9622.677246,-80286.808190
847.288862,-740.205942,10955.047942,-79061.055394
847.291429,1332.370696,6957.935855,-79367.493593
847.293996,-296.082377,5773.606348,-78141.740796
847.296564,-1924.535449,-1628.453072,-78754.617194
847.299131,-1628.453072,-1628.453072,-78754.617194
847.301698,-1036.288319,-4441.235652,-79520.712692
847.304266,740.205942,3256.906145,-80133.589091
847.306833,888.247130,148.041188,-77682.083497
847.309401,-444.123565,12583.501014,-76762.768900
847.311968,-296.082377,5921.647536,-79673.931792
847.314535,-1332.370696,592.164754,-82125.437386
847.317103,-148.041188,296.082377,-79673.931792
847.319670,-296.082377,1924.535449,-81052.903688
847.322237,-1184.329507,592.164754,-80593.246390
847.324805,296.082377,5625.565159,-77988.521696
847.327372,-148.041188,7254.018232,-77835.302597
847.329940,-592.164754,5477.523971,-79367.493593
847.332507,-740.205942,3701.029710,-78907.836294
847.335074,-296.082377,2072.576638,-77988.521696
847.337642,444.123565,1776.494261,-78754.617194
847.340209,592.164754,444.123565,-78907.836294
847.342776,-888.247130,-8734.430116,-78601.398095
847.345344,-296.082377,-15396.283594,-80440.027290
847.347911,-296.082377,-15396.283594,-79673.931792
847.350479,-1036.288319,-10362.883188,-78907.836294
847.353046,-296.082377,-7254.018232,-78601.398095
847.355613,-888.247130,-1480.411884,-77988.521696
847.358181,0.000000,1776.494261,-78754.617194
847.360748,444.123565,2664.741391,-78601.398095
847.363315,-296.082377,-4145.153275,-78601.398095
847.365883,-888.247130,-13767.830521,-80133.589091
847.368450,296.082377,-10362.883188,-80286.808190
847.370979,592.164754,2812.782580,-76762.768900
847.373507,-296.082377,-13915.871710,-79061.055394
847.376036,444.123565,-4589.276840,-79214.274493
847.378564,-296.082377,-6069.688724,-78294.959896
847.381093,-740.205942,-8142.265362,-80286.808190
847.383621,-296.082377,-6661.853478,-79061.055394
847.386150,1776.494261,-9178.553681,-79367.493593
847.388678,-1184.329507,-6661.853478,-77682.083497
847.391207,-148.041188,-10214.842000,-81052.903688
847.393735,-1480.411884,-4441.235652,-78754.617194
847.396264,888.247130,-6661.853478,-79673.931792
847.398792,-444.123565,1332.370696,-79673.931792
847.401321,888.247130,7698.141797,-79367.493593
847.403849,-1776.494261,13915.871710,-78141.740796
847.406378,444.123565,9770.718434,-79673.931792
847.408906,0.000000,6217.729913,-79520.712692
847.411435,592.164754,2368.659014,-77988.521696
847.413963,-1332.370696,-1480.411884,-78448.178995
847.416492,-148.041188,-4145.153275,-79367.493593
847.419020,-148.041188,-2664.741391,-78294.959896
847.421549,-592.164754,444.123565,-79214.274493
847.424077,740.205942,12583.501014,-78754.617194
847.426606,-592.164754,2220.617826,-79673.931792
847.429134,-148.041188,6217.729913,-79214.274493
847.431663,-148.041188,4293.194464,-79520.712692
847.434191,-296.082377,-296.082377,-80899.684589
847.436720,-148.041188,1184.329507,-78448.178995
847.439248,444.123565,296.082377,-78601.398095
847.441776,-592.164754,8290.306550,-77069.207099
847.444305,296.082377,5329.482782,-78601.398095
847.446833,-444.123565,7698.141797,-79980.369991
847.449362,0.000000,740.205942,-80440.027290
847.451890,444.123565,5181.441594,-78907.836294
847.454419,-148.041188,-444.123565,-78448.178995
847.456947,0.000000,-5033.400406,-77682.083497
847.459476,-740.205942,-14508.036463,-79367.493593
847.462004,-296.082377,-13767.830521,-78907.836294
847.464533,-1480.411884,-12583.501014,-79673.931792
847.467061,0.000000,-7698.141797,-79214.274493
847.469590,-592.164754,-4293.194464,-79673.931792
847.472126,740.205942,2516.700203,-79061.055394
847.474661,-296.082377,-888.247130,-79520.712692
847.477197,-740.205942,-592.164754,-78601.398095
847.479733,-592.164754,-3849.070898,-78294.959896
847.482269,-148.041188,-12139.377449,-79367.493593
847.484804,-148.041188,-13915.871710,-80133.589091
847.487340,444.123565,-3552.988522,-78448.178995
847.489876,-740.205942,-6957.935855,-78294.959896
847.492412,-592.164754,-5033.400406,-78448.178995
847.494947,-148.041188,-4145.153275,-80286.808190
847.497483,-296.082377,-5625.565159,-80286.808190
847.500019,-888.247130,-8290.306550,-79061.055394
847.502555,-1184.329507,-8586.388927,-79061.055394
847.505090,-740.205942,-5329.482782,-78754.617194
847.507626,-1924.535449,-7105.977043,-80593.246390
847.510162,592.164754,-6217.729913,-78907.836294
847.512698,-444.123565,-1628.453072,-78294.959896
847.515233,592.164754,8586.388927,-78294.959896
847.517769,-1480.411884,11843.295072,-79673.931792
847.520305,-444.123565,13619.789333,-78907.836294
847.522841,-740.205942,6513.812290,-79827.150892
847.525376,1036.288319,2664.741391,-79214.274493
847.527912,-1480.411884,-3552.988522,-79367.493593
847.530448,0.000000,-4145.153275,-78601.398095
847.532984,-148.041188,-2368.659014,-79827.150892
847.535519,444.123565,3256.906145,-79673.931792
847.538055,740.205942,-2812.782580,-78907.836294
847.540591,-296.082377,7994.224174,-79673.931792
847.543127,-592.164754,7846.182985,-77375.645298
847.545662,-296.082377,740.205942,-81818.999186
847.548198,0.000000,7254.018232,-78907.836294
847.550734,-444.123565,-444.123565,-79214.274493
847.553270,-888.247130,3849.070898,-78448.178995
847.555805,-592.164754,592.164754,-79520.712692
847.558341,-1480.411884,7254.018232,-78601.398095
847.560877,-296.082377,2960.823768,-80133.589091
847.563413,-296.082377,6957.935855,-78448.178995
847.565948,444.123565,2516.700203,-78907.836294
847.568484,-592.164754,3404.947333,-79214.274493
847.571020,444.123565,-11251.130318,-78294.959896
847.573562,148.041188,-16580.613101,-79520.712692
847.576104,-1036.288319,-17764.942608,-80133.589091
847.578646,444.123565,-10066.800811,-78754.617194
847.581188,-444.123565,-5033.400406,-78601.398095
847.583730,-1184.329507,-740.205942,-79827.150892
847.586272,148.041188,3997.112087,-78141.740796
847.588814,0.000000,0.000000,-78294.959896
847.591356,-1480.411884,-2368.659014,-79980.369991
847.593898,-444.123565,-9918.759623,-79367.493593
847.596440,-740.205942,-11991.336260,-79061.055394
847.598982,740.205942,-9030.512492,-78448.178995
847.601524,592.164754,-8438.347739,-80440.027290
847.604066,-888.247130,-5477.523971,-77375.645298
847.606608,444.123565,-2960.823768,-78754.617194
847.609150,-1332.370696,-5181.441594,-78907.836294
847.611692,740.205942,-8734.430116,-80286.808190
847.614234,1036.288319,-8734.430116,-80593.246390
847.616776,-888.247130,-7846.182985,-78141.740796
847.619318,-592.164754,-6069.688724,-78448.178995
847.621860,-296.082377,-7105.977043,-79980.369991
847.624402,296.082377,-888.247130,-79367.493593
847.626944,-148.041188,7105.977043,-78601.398095
847.629486,148.041188,10362.883188,-78907.836294
847.632028,-888.247130,14359.995275,-78294.959896
847.634570,296.082377,7105.977043,-80286.808190
847.637112,-296.082377,4885.359217,-78448.178995
847.639654,-740.205942,-1628.453072,-79061.055394
847.642196,-1184.329507,-5477.523971,-79520.712692
847.644738,148.041188,-6365.771101,-79520.712692
847.647280,444.123565,444.123565,-78907.836294
847.649822,444.123565,11251.130318,-78448.178995
847.652364,-740.205942,4293.194464,-79520.712692
847.654906,0.000000,6661.853478,-79061.055394
847.657448,0.000000,6365.771101,-78601.398095
847.659990,-1184.329507,4293.194464,-80133.589091
847.662532,740.205942,4293.194464,-79827.150892
847.665074,-888.247130,592.164754,-80133.589091
847.667616,148.041188,4737.318029,-78601.398095
847.670158,-888.247130,3108.864956,-78754.617194
847.672700,148.041188,6957.935855,-78294.959896
847.675246,-592.164754,4145.153275,-79061.055394
847.677793,1036.288319,7846.182985,-79520.712692
847.680339,0.000000,-148.041188,-78294.959896
847.682886,-148.041188,-11843.295072,-79367.493593
847.685432,-444.123565,-17172.777854,-79520.712692
847.687979,740.205942,-16876.695478,-80286.808190
847.690525,-1036.288319,-13471.748144,-79367.493593
847.693072,0.000000,-5181.441594,-78294.959896
847.695618,-444.123565,-1776.494261,-79520.712692
847.698165,592.164754,3404.947333,-77835.302597
847.700711,-296.082377,-888.247130,-78907.836294
847.703258,-148.041188,-3552.988522,-79980.369991
847.705804,-148.041188,-12139.377449,-79520.712692
847.708351,-592.164754,-10807.006753,-76762.768900
847.710898,-1184.329507,-6809.894666,-78294.959896
847.713444,-592.164754,-7254.018232,-80746.465489
847.715991,-148.041188,-7994.224174,-80593.246390
847.718537,-888.247130,-8290.306550,-79061.055394
847.721084,444.123565,-2516.700203,-77988.521696
847.723630,0.000000,-5329.482782,-80286.808190
847.726177,148.041188,-5625.565159,-78141.740796
847.728723,-592.164754,-5181.441594,-78141.740796
847.731270,-1628.453072,-10214.842000,-79980.369991
847.733816,-444.123565,-9918.759623,-79673.931792
847.736363,0.000000,-2812.782580,-78907.836294
847.738909,-1184.329507,9474.636058,-79367.493593
847.741456,-296.082377,11695.253884,-79980.369991
847.744002,-296.082377,15100.201217,-80133.589091
847.746549,-740.205942,9326.594869,-79520.712692
847.749095,148.041188,5033.400406,-78907.836294
847.751642,-1184.329507,-4589.276840,-78907.836294
847.754188,-444.123565,-6217.729913,-78754.617194
847.756735,-444.123565,-4737.318029,-78907.836294
847.759281,-296.082377,5773.606348,-79520.712692
847.761828,-1036.288319,-7402.059420,-81359.341888
847.764374,148.041188,1776.494261,-81359.341888
847.766921,592.164754,15840.407159,-77988.521696
847.769467,-148.041188,888.247130,-80286.808190
847.772014,-444.123565,9770.718434,-79827.150892
847.774560,444.123565,-1776.494261,-80133.589091
847.777111,-888.247130,4589.276840,-78294.959896
847.779662,296.082377,-740.205942,-78448.178995
847.782213,-1480.411884,6365.771101,-77835.302597
847.784763,-148.041188,2812.782580,-78448.178995
847.787314,1184.329507,7698.141797,-78601.398095
847.789865,592.164754,3552.988522,-78907.836294
847.792416,740.205942,-3108.864956,-79673.931792
847.794967,-888.247130,-11399.171507,-78754.617194
847.797517,148.041188,-16284.530724,-79061.055394
847.800068,-740.205942,-18357.107362,-79827.150892
847.802619,0.000000,-12731.542202,-79214.274493
847.805170,-888.247130,-4589.276840,-78907.836294
847.807720,-296.082377,148.041188,-79673.931792
847.810271,-1480.411884,3552.988522,-77222.426198
847.812822,1184.329507,3552.988522,-78907.836294
847.815373,-1480.411884,-9030.512492,-81206.122788
847.817923,-296.082377,-6365.771101,-77682.083497
847.820474,-1036.288319,-10658.965565,-78294.959896
847.823025,740.205942,-6069.688724,-78601.398095
847.825576,148.041188,-8586.388927,-78601.398095
847.828126,-444.123565,-8438.347739,-79673.931792
847.830677,-296.082377,-3997.112087,-77682.083497
847.833228,444.123565,-6217.729913,-78601.398095
847.835779,296.082377,-5773.606348,-78754.617194
847.838329,444.123565,-7698.141797,-80133.589091
847.840880,-444.123565,-5033.400406,-79061.055394
847.843431,-1036.288319,-11399.171507,-78601.398095
847.845982,888.247130,-1480.411884,-79214.274493
847.848533,-444.123565,2072.576638,-79367.493593
847.851083,-148.041188,13915.871710,-79061.055394
847.853634,-444.123565,12435.459826,-79367.493593
847.856185,-148.041188,12139.377449,-78601.398095
847.858736,740.205942,6661.853478,-79520.712692
847.861286,-148.041188,1480.411884,-78448.178995
847.863837,-1184.329507,-4293.194464,-79980.369991
847.866388,-148.041188,-5921.647536,-79061.055394
847.868939,-296.082377,-4293.194464,-79673.931792
847.871489,740.205942,7402.059420,-77988.521696
847.874040,-592.164754,4589.276840,-78448.178995
847.876591,444.123565,6513.812290,-79827.150892
847.879144,-148.041188,9326.594869,-77835.302597
847.881698,-1480.411884,3108.864956,-79980.369991
847.884251,1036.288319,6513.812290,-78754.617194
847.886805,-592.164754,0.000000,-79214.274493
847.889358,-592.164754,4145.153275,-78601.398095
847.891912,-888.247130,1776.494261,-78907.836294
847.894465,-444.123565,3849.070898,-79061.055394
847.897019,148.041188,4293.194464,-79214.274493
847.899572,740.205942,6957.935855,-79827.150892
847.902126,444.123565,-2368.659014,-78754.617194
847.904679,-888.247130,-12731.542202,-77835.302597
847.907233,-740.205942,-15544.324782,-78601.398095
847.909786,740.205942,-16876.695478,-79673.931792
847.912339,0.000000,-11991.336260,-80133.589091
847.914893,1184.329507,-6661.853478,-78601.398095
847.917446,-888.247130,444.123565,-78754.617194
847.920000,444.123565,6069.688724,-77988.521696
847.922553,-444.123565,-1184.329507,-78907.836294
847.925107,444.123565,1628.453072,-77835.302597
847.927660,-740.205942,-7550.100608,-79061.055394
847.930214,-740.205942,-11103.089130,-78294.959896
847.932767,-1184.329507,-15544.324782,-79061.055394
847.935321,1036.288319,-10066.800811,-78754.617194
847.937874,444.123565,-6661.853478,-79061.055394
847.940428,-1184.329507,-3997.112087,-78448.178995
847.942981,0.000000,-5625.565159,-78601.398095
847.945535,-444.123565,-4145.153275,-80593.246390
847.948088,296.082377,-6217.729913,-79980.369991
847.950641,-1628.453072,-7402.059420,-79827.150892
847.953195,-296.082377,-10362.883188,-77835.302597
847.955748,-592.164754,-1628.453072,-77835.302597
847.958302,-592.164754,3552.988522,-78907.836294
847.960855,148.041188,11399.171507,-79980.369991
847.963409,148.041188,13471.748144,-79827.150892
847.965962,-444.123565,10362.883188,-79214.274493
847.968516,-444.123565,6069.688724,-79061.055394
847.971069,444.123565,-592.164754,-79980.369991
847.973623,-592.164754,-2812.782580,-78907.836294
847.976176,-444.123565,-7254.018232,-78294.959896
847.978730,-444.123565,2220.617826,-77988.521696
847.981286,-592.164754,-1776.494261,-80133.589091
847.983842,0.000000,2368.659014,-80746.465489
847.986398,0.000000,15544.324782,-78448.178995
847.988954,-1184.329507,5625.565159,-77682.083497
847.991510,0.000000,9770.718434,-80286.808190
847.994066,592.164754,2960.823768,-79367.493593
847.996623,592.164754,3256.906145,-79214.274493
847.999179,-740.205942,-740.205942,-78907.836294
848.001735,-148.041188,1480.411884,-78448.178995
848.004291,-1924.535449,3256.906145,-78601.398095
848.006847,592.164754,5773.606348,-79367.493593
848.009403,740.205942,2516.700203,-78448.178995
848.011959,-148.041188,-8734.430116,-78754.617194
848.014515,-1184.329507,-15100.201217,-79367.493593
848.017072,-148.041188,-17172.777854,-79673.931792
848.019628,-444.123565,-13471.748144,-79520.712692
848.022184,296.082377,-12139.377449,-79214.274493
848.024740,-740.205942,148.041188,-77682.083497
848.027296,-296.082377,-296.082377,-78294.959896
848.029852,-1184.329507,4589.276840,-78601.398095
848.032408,148.041188,-6809.894666,-80133.589091
848.034964,148.041188,-3256.906145,-77988.521696
848.037521,148.041188,-8882.471304,-78601.398095
848.040077,-1184.329507,-6957.935855,-77835.302597
848.042633,0.000000,-12583.501014,-80286.808190
848.045189,1036.288319,-10658.965565,-79520.712692
848.047745,0.000000,-8882.471304,-78754.617194
848.050301,444.123565,-5921.647536,-79061.055394
848.052857,148.041188,-5329.482782,-79214.274493
848.055413,888.247130,-3849.070898,-80746.465489
848.057970,-888.247130,-5625.565159,-79520.712692
848.060526,-148.041188,-8142.265362,-78294.959896
848.063082,-1480.411884,-4737.318029,-77988.521696
848.065638,-740.205942,5773.606348,-79367.493593
848.068194,-148.041188,10658.965565,-78754.617194
848.070750,888.247130,14063.912898,-79367.493593
848.073306,-740.205942,9622.677246,-79061.055394
848.075862,-148.041188,8142.265362,-78754.617194
848.078419,-888.247130,-2664.741391,-79520.712692
848.080975,-888.247130,-1924.535449,-77988.521696
848.083535,148.041188,-2220.617826,-80286.808190
848.086094,-740.205942,-2812.782580,-79520.712692
848.088652,-296.082377,148.041188,-80746.465489
848.091211,888.247130,11399.171507,-77375.645298
848.093770,148.041188,1332.370696,-78754.617194
848.096328,-296.082377,8882.471304,-79061.055394
848.098887,148.041188,7550.100608,-80286.808190
848.101445,1036.288319,3997.112087,-80286.808190
848.104004,-592.164754,3552.988522,-79214.274493
848.106562,148.041188,3108.864956,-78754.617194
848.109121,-592.164754,4145.153275,-78448.178995
848.111679,-2960.823768,3108.864956,-79980.369991
848.114238,1480.411884,7698.141797,-79520.712692
848.116796,444.123565,-1628.453072,-79980.369991
848.119355,-148.041188,-6069.688724,-78294.959896
848.121914,-444.123565,-15840.407159,-78907.836294
848.124472,-1332.370696,-14804.118840,-79214.274493
848.127031,-296.082377,-13767.830521,-79673.931792
848.129589,592.164754,-7994.224174,-79367.493593
848.132148,-296.082377,-1480.411884,-79980.369991
848.134706,-148.041188,2368.659014,-78754.617194
848.137265,-888.247130,0.000000,-79367.493593
848.139823,592.164754,296.082377,-77988.521696
848.142382,296.082377,-7105.977043,-78907.836294
848.144940,-592.164754,-13175.665768,-80899.684589
848.147499,-1184.329507,-8734.430116,-80286.808190
848.150058,0.000000,-10362.883188,-78448.178995
848.152616,592.164754,-8290.306550,-79214.274493
848.155175,-1924.535449,-6513.812290,-79827.150892
848.157733,-148.041188,-5625.565159,-79367.493593
848.160292,-592.164754,-5921.647536,-79827.150892
848.162850,1480.411884,-6069.688724,-78294.959896
848.165409,-1184.329507,-3997.112087,-78141.740796
848.167967,148.041188,-9030.512492,-78294.959896
848.170526,-444.123565,-296.082377,-78448.178995
848.173084,740.205942,6365.771101,-78907.836294
848.175643,-444.123565,12139.377449,-80440.027290
848.178202,-148.041188,12287.418637,-80593.246390
848.180760,-148.041188,11991.336260,-78754.617194
848.183319,-148.041188,6365.771101,-78754.617194
848.185878,296.082377,-592.164754,-77682.083497
848.188438,-888.247130,-5921.647536,-79367.493593
848.190998,0.000000,-3256.906145,-79061.055394
848.193558,-1332.370696,-6513.812290,-80899.684589
848.196117,-296.082377,12731.542202,-78294.959896
848.198677,-444.123565,1184.329507,-80286.808190
848.201237,-148.041188,8290.306550,-77528.864398
848.203797,-592.164754,6957.935855,-78754.617194
848.206356,0.000000,8438.347739,-80440.027290
848.208916,-592.164754,4293.194464,-80593.246390
848.211476,-296.082377,-592.164754,-79673.931792
848.214036,-888.247130,5329.482782,-78754.617194
848.216596,-2516.700203,-1924.535449,-79214.274493
848.219155,148.041188,7254.018232,-79061.055394
848.221715,888.247130,1776.494261,-79367.493593
848.224275,1036.288319,-1184.329507,-78754.617194
848.226835,148.041188,-11251.130318,-78294.959896
848.229394,-1332.370696,-13915.871710,-78907.836294
848.231954,444.123565,-16284.530724,-79214.274493
848.234514,296.082377,-12139.377449,-79520.712692
848.237074,444.123565,-6661.853478,-79520.712692
848.239633,-888.247130,148.041188,-79367.493593
848.242193,-2368.659014,2072.576638,-78448.178995
848.244753,444.123565,444.123565,-79520.712692
848.247313,1036.288319,-3849.070898,-78601.398095
848.249872,-444.123565,-8882.471304,-79520.712692
848.252432,-444.123565,-8438.347739,-79827.150892
848.254992,-444.123565,-10362.883188,-78907.836294
848.257552,1332.370696,-8882.471304,-78448.178995
848.260111,-148.041188,-9770.718434,-79061.055394
848.262671,-592.164754,-7105.977043,-78754.617194
848.265231,-444.123565,-6365.771101,-79980.369991
848.267791,592.164754,-5625.565159,-79520.712692
848.270351,1036.288319,-5477.523971,-79980.369991
848.272910,1480.411884,-7698.141797,-78907.836294
848.275470,-1776.494261,-3701.029710,-78141.740796
848.278030,148.041188,6069.688724,-77988.521696
848.280590,-888.247130,8882.471304,-80286.808190
848.283149,-296.082377,13027.624579,-79520.712692
848.285709,0.000000,10955.047942,-78907.836294
848.288270,740.205942,9918.759623,-77835.302597
848.290831,-296.082377,-592.164754,-77835.302597
848.293392,-592.164754,592.164754,-78294.959896
848.295954,0.000000,-8142.265362,-79214.274493
848.298515,-740.205942,3552.988522,-78601.398095
848.301076,-296.082377,-1332.370696,-80746.465489
848.303637,0.000000,10066.800811,-78601.398095
848.306198,148.041188,148.041188,-79520.712692
848.308759,-1184.329507,10510.924376,-78141.740796
848.311320,-740.205942,5921.647536,-79673.931792
848.313881,444.123565,6217.729913,-79367.493593
848.316442,444.123565,2516.700203,-79673.931792
848.319003,-1332.370696,4737.318029,-78294.959896
848.321565,-1776.494261,1924.535449,-77988.521696
848.324126,-2368.659014,2960.823768,-79061.055394
848.326687,1924.535449,4737.318029,-79214.274493
848.329248,296.082377,-1628.453072,-79673.931792
848.331809,-1036.288319,-12583.501014,-79061.055394
848.334370,-1480.411884,-14804.118840,-78601.398095
848.336931,-296.082377,-14656.077652,-79520.712692
848.339492,-148.041188,-12731.542202,-79827.150892
848.342053,148.041188,-6957.935855,-78754.617194
848.344614,-740.205942,1036.288319,-78294.959896
848.347176,-444.123565,2368.659014,-79367.493593
848.349737,-296.082377,1924.535449,-78294.959896
848.352298,1480.411884,-7994.224174,-79673.931792
848.354859,148.041188,-10214.842000,-79061.055394
848.357420,296.082377,-6661.853478,-77835.302597
848.359981,-2368.659014,-10510.924376,-79367.493593
848.362542,148.041188,-9030.512492,-79367.493593
848.365103,-296.082377,-11991.336260,-79367.493593
848.367664,-148.041188,-6069.688724,-78141.740796
848.370227,-740.205942,-4293.194464,-78141.740796
848.372789,444.123565,-4145.153275,-79520.712692
848.375352,148.041188,-4441.235652,-80593.246390
848.377914,1924.535449,-9326.594869,-79367.493593
848.380477,-1628.453072,-2516.700203,-77988.521696
848.383039,-1332.370696,4885.359217,-79061.055394
848.385601,740.205942,9474.636058,-80133.589091
848.388164,740.205942,14211.954086,-79827.150892
848.390726,-1036.288319,11399.171507,-79520.712692
848.393289,-148.041188,7105.977043,-79214.274493
848.395851,-148.041188,-296.082377,-78907.836294
848.398414,296.082377,-2368.659014,-79673.931792
848.400976,-148.041188,-3997.112087,-78907.836294
848.403538,-592.164754,-5181.441594,-80286.808190
848.406101,592.164754,4737.318029,-79520.712692
848.408663,740.205942,3997.112087,-78601.398095
848.411226,-296.082377,4737.318029,-78754.617194
848.413788,-444.123565,11695.253884,-77988.521696
848.416351,-444.123565,7994.224174,-77835.302597
848.418913,296.082377,6513.812290,-78754.617194
848.421476,-148.041188,-148.041188,-80440.027290
848.424038,-148.041188,3256.906145,-79980.369991
848.426600,-1480.411884,1480.411884,-78448.178995
848.429163,-1480.411884,6217.729913,-79520.712692
848.431725,1184.329507,2072.576638,-77528.864398
848.434288,148.041188,-5773.606348,-80133.589091
848.436850,-740.205942,-14804.118840,-77835.302597
848.439413,-1332.370696,-15692.365970,-78294.959896
848.441975,1036.288319,-15396.283594,-79520.712692
848.444537,0.000000,-11695.253884,-79520.712692
848.447100,-444.123565,-3108.864956,-79214.274493
848.449662,-888.247130,2664.741391,-79214.274493
848.452225,-1628.453072,3108.864956,-78294.959896
848.454787,-296.082377,3997.112087,-77988.521696
848.457350,0.000000,-15544.324782,-81512.560987
848.459912,0.000000,-6661.853478,-77528.864398
848.462475,-1036.288319,-8290.306550,-78141.740796
848.465037,148.041188,-8438.347739,-80133.589091
848.467599,0.000000,-12879.583391,-79061.055394
848.470162,888.247130,-9622.677246,-78294.959896
848.472725,-740.205942,-5477.523971,-77375.645298
848.475287,-592.164754,-6217.729913,-79827.150892
848.477850,592.164754,-444.123565,-78907.836294
848.480413,740.205942,-9622.677246,-78907.836294
848.482975,-148.041188,-2220.617826,-77682.083497
848.485538,-1480.411884,740.205942,-78448.178995
848.488101,-148.041188,8882.471304,-80593.246390
848.490663,296.082377,10807.006753,-79827.150892
848.493226,148.041188,14063.912898,-79520.712692
848.495789,-1184.329507,9918.759623,-79061.055394
848.498352,-1036.288319,3256.906145,-78754.617194
848.500914,444.123565,-2664.741391,-78754.617194
848.503477,-296.082377,-5329.482782,-78907.836294
848.506040,444.123565,2516.700203,-77375.645298
848.508602,-444.123565,-1776.494261,-79673.931792
848.511165,148.041188,6069.688724,-79980.369991
848.513728,148.041188,148.041188,-80286.808190
848.516290,-148.041188,8734.430116,-80593.246390
848.518853,148.041188,7698.141797,-78601.398095
848.521416,592.164754,8290.306550,-79061.055394
848.523979,888.247130,3701.029710,-79367.493593
848.526541,-148.041188,4293.194464,-78754.617194
848.529104,-1184.329507,740.205942,-77682.083497
848.531667,-1332.370696,4145.153275,-78448.178995
848.534229,740.205942,148.041188,-79673.931792
848.536792,1628.453072,-8882.471304,-78601.398095
848.539355,148.041188,-13027.624579,-78907.836294
848.541917,-3256.906145,-17616.901420,-79214.274493
848.544480,148.041188,-10510.924376,-77988.521696
848.547043,0.000000,-11695.253884,-80593.246390
848.549606,444.123565,-3997.112087,-78601.398095
848.552168,-444.123565,444.123565,-79367.493593
848.554731,-1184.329507,1628.453072,-78754.617194
848.557294,-444.123565,-7550.100608,-80899.684589
848.559856,296.082377,-1628.453072,-78601.398095
848.562419,444.123565,-10066.800811,-79673.931792
848.564982,148.041188,-5329.482782,-78907.836294
848.567545,-1036.288319,-13323.706956,-77835.302597
848.570107,0.000000,-10807.006753,-80440.027290
848.572670,740.205942,-10066.800811,-78448.178995
848.575233,-1036.288319,-5921.647536,-79061.055394
848.577796,-444.123565,-4145.153275,-79061.055394
848.580359,-888.247130,-4145.153275,-78907.836294
848.582922,1036.288319,-6957.935855,-79980.369991
848.585485,-444.123565,-4885.359217,-78294.959896
848.588048,-740.205942,3849.070898,-79061.055394
848.590612,-740.205942,9622.677246,-79061.055394
848.593175,0.000000,13619.789333,-80593.246390
848.595738,0.000000,10510.924376,-79214.274493
848.598301,296.082377,8438.347739,-79673.931792
848.600864,-148.041188,888.247130,-78448.178995
848.603427,592.164754,-740.205942,-79214.274493
848.605990,-592.164754,-4589.276840,-78448.178995
848.608553,-592.164754,1036.288319,-78754.617194
848.611116,-1036.288319,-2516.700203,-80746.465489
848.613679,148.041188,9030.512492,-77682.083497
848.616243,-592.164754,5625.565159,-78754.617194
848.618806,-888.247130,8586.388927,-79520.712692
848.621369,-592.164754,10807.006753,-80440.027290
848.623932,0.000000,4589.276840,-79367.493593
848.626495,444.123565,2368.659014,-77988.521696
848.629058,444.123565,2516.700203,-78294.959896
848.631621,-1776.494261,3404.947333,-77988.521696
848.634184,-1184.329507,3997.112087,-79367.493593
848.636747,-444.123565,2072.576638,-79367.493593
848.639310,-148.041188,-8142.265362,-79214.274493
848.641873,592.164754,-16580.613101,-79061.055394
848.644437,-1776.494261,-15692.365970,-78754.617194
848.647000,1036.288319,-14804.118840,-79214.274493
848.649563,0.000000,-8438.347739,-79367.493593
848.652126,1924.535449,-4441.235652,-79520.712692
848.654689,-2812.782580,0.000000,-78448.178995
848.657252,-1776.494261,-1776.494261,-77988.521696
848.659815,888.247130,-4293.194464,-79980.369991
848.662378,0.000000,-7254.018232,-78601.398095
848.664941,-592.164754,-6661.853478,-79673.931792
848.667504,-1480.411884,-9030.512492,-78754.617194
848.670067,592.164754,-13471.748144,-80286.808190
848.672631,296.082377,-14508.036463,-79827.150892
848.675194,0.000000,-8734.430116,-79061.055394
848.677723,-740.205942,-2516.700203,-77222.426198
848.680252,444.123565,-3404.947333,-79061.055394
848.682781,-592.164754,-3849.070898,-79980.369991
848.685310,592.164754,-8734.430116,-79367.493593
848.687839,-148.041188,-148.041188,-78601.398095
848.690369,-2516.700203,5625.565159,-78448.178995
848.692898,888.247130,11399.171507,-79061.055394
848.695427,592.164754,11695.253884,-80440.027290
848.697956,1036.288319,11991.336260,-79367.493593
848.700485,-444.123565,3997.112087,-79520.712692
848.703014,-148.041188,-296.082377,-78294.959896
848.705543,-888.247130,-5329.482782,-80133.589091
848.708073,592.164754,2368.659014,-78601.398095
848.710602,-1184.329507,-5181.441594,-80286.808190
848.713131,-296.082377,2664.741391,-78601.398095
848.715660,888.247130,9622.677246,-75690.235202
848.718189,-592.164754,888.247130,-80593.246390
848.720718,-888.247130,15248.242405,-77222.426198
848.723248,-1184.329507,4589.276840,-80286.808190
848.725777,592.164754,7254.018232,-78907.836294
848.728306,-888.247130,-148.041188,-79367.493593
848.730835,-444.123565,2960.823768,-78294.959896
848.733364,-2664.741391,1924.535449,-78294.959896
848.735893,1480.411884,4441.235652,-79061.055394
848.738422,592.164754,-7698.141797,-78907.836294
848.740952,-148.041188,-11695.253884,-79827.150892
848.743481,-1184.329507,-16580.613101,-77988.521696
848.746010,0.000000,-12731.542202,-78294.959896
848.748539,-148.041188,-12435.459826,-79673.931792
848.751068,1332.370696,-6217.729913,-81052.903688
848.753597,-1184.329507,-1036.288319,-78907.836294
848.756127,592.164754,3108.864956,-78294.959896
848.758656,-1628.453072,-6957.935855,-78601.398095
848.761185,888.247130,-3404.947333,-80133.589091
848.763714,-592.164754,-8438.347739,-80593.246390
848.766243,444.123565,-5033.400406,-76456.330700
848.768772,-1480.411884,-9918.759623,-78601.398095
848.771301,-592.164754,-12731.542202,-79520.712692
848.773831,592.164754,-11399.171507,-79367.493593
848.776360,0.000000,-7994.224174,-79367.493593
848.778896,-1184.329507,-6661.853478,-79673.931792
848.781432,-1480.411884,-3849.070898,-79520.712692
848.783968,740.205942,-6217.729913,-78601.398095
848.786504,-740.205942,-296.082377,-78294.959896
848.789040,-888.247130,5477.523971,-78448.178995
848.791576,-444.123565,12435.459826,-79061.055394
848.794112,148.041188,11251.130318,-80593.246390
848.796648,296.082377,11103.089130,-79367.493593
848.799184,-444.123565,6365.771101,-78294.959896
848.801720,-888.247130,592.164754,-77835.302597
848.804257,0.000000,-2220.617826,-79214.274493
848.806793,296.082377,-4145.153275,-79673.931792
848.809329,-296.082377,1480.411884,-79367.493593
848.811865,-740.205942,2960.823768,-78141.740796
848.814401,296.082377,5625.565159,-78907.836294
848.816937,296.082377,7846.182985,-78294.959896
848.819473,-888.247130,5921.647536,-78141.740796
848.822009,-296.082377,8142.265362,-79827.150892
848.824545,-740.205942,3849.070898,-79214.274493
848.827081,-148.041188,5033.400406,-78907.836294
848.829617,-740.205942,1628.453072,-78294.959896
848.832153,-1184.329507,4441.235652,-78141.740796
848.834689,-444.123565,3404.947333,-78601.398095
848.837225,1184.329507,-9622.677246,-79520.712692
848.839761,-592.164754,-13027.624579,-79214.274493
848.842298,-1036.288319,-17616.901420,-79061.055394
848.844834,-740.205942,-12879.583391,-79367.493593
848.847370,592.164754,-9030.512492,-80286.808190
848.849906,148.041188,-3997.112087,-79214.274493
848.852442,1332.370696,2516.700203,-78601.398095
848.854978,-888.247130,1924.535449,-79214.274493
848.857514,-740.205942,-5921.647536,-80593.246390
848.860050,444.123565,-2664.741391,-79673.931792
848.862586,1332.370696,-7402.059420,-79061.055394
848.865122,-1184.329507,-10066.800811,-79980.369991
848.867658,592.164754,-9474.636058,-78907.836294
848.870194,-740.205942,-14359.995275,-79367.493593
848.872730,740.205942,-8438.347739,-77988.521696
848.875266,-1184.329507,-6365.771101,-79827.150892
848.877803,-444.123565,-4589.276840,-78907.836294
848.880345,-740.205942,-3256.906145,-80746.465489
848.882887,1776.494261,-7846.182985,-78754.617194
848.885429,-1776.494261,4145.153275,-78601.398095
848.887971,0.000000,6513.812290,-79061.055394
848.890513,-148.041188,13619.789333,-79367.493593
848.893055,-592.164754,11251.130318,-79827.150892
848.895598,-888.247130,11547.212695,-78754.617194
848.898140,-296.082377,3256.906145,-79061.055394
848.900682,-740.205942,-1332.370696,-78448.178995
848.903224,444.123565,-3108.864956,-79214.274493
848.905766,444.123565,-4737.318029,-79980.369991
848.908308,-888.247130,-148.041188,-79673.931792
848.910851,-296.082377,7402.059420,-77988.521696
848.913393,444.123565,7550.100608,-78141.740796
848.915935,-592.164754,6513.812290,-79214.274493
848.918477,-888.247130,10214.842000,-78907.836294
848.921019,1184.329507,7550.100608,-78294.959896
848.923561,-592.164754,3849.070898,-78907.836294
848.926104,740.205942,2516.700203,-77988.521696
848.928646,-2664.741391,1480.411884,-77835.302597
848.931188,148.041188,5477.523971,-78754.617194
848.933730,-592.164754,-2960.823768,-80286.808190
848.936272,888.247130,-8586.388927,-78907.836294
848.938814,296.082377,-16136.489536,-80133.589091
848.941357,-444.123565,-15248.242405,-78141.740796
848.943899,-148.041188,-14063.912898,-80133.589091
848.946441,1184.329507,-6365.771101,-79367.493593
848.948983,-296.082377,-3108.864956,-78601.398095
848.951525,-592.164754,4737.318029,-78294.959896
848.954067,-1628.453072,1924.535449,-79520.712692
848.956610,-296.082377,-5921.647536,-80133.589091
848.959152,1036.288319,-4293.194464,-77835.302597
848.961694,-2072.576638,-12879.583391,-79980.369991
848.964236,-296.082377,-8142.265362,-78141.740796
848.966778,-148.041188,-14952.160028,-77682.083497
848.969320,-888.247130,-9622.677246,-79214.274493
848.971863,-592.164754,-7105.977043,-78907.836294
848.974405,444.123565,-4293.194464,-80746.465489
848.976947,-1628.453072,-4145.153275,-79214.274493
848.979489,1480.411884,-5921.647536,-79827.150892
848.982003,-1184.329507,-2960.823768,-78141.740796
848.984517,-1776.494261,6069.688724,-78448.178995
848.987031,296.082377,11695.253884,-77682.083497
848.989545,888.247130,11547.212695,-79367.493593
848.992059,-296.082377,10955.047942,-79214.274493
848.994573,-740.205942,6957.935855,-79367.493593
848.997087,-1184.329507,1332.370696,-78448.178995
848.999601,0.000000,-888.247130,-78907.836294
849.002115,-444.123565,-2072.576638,-79827.150892
849.004629,-888.247130,-1184.329507,-81512.560987
849.007143,-1480.411884,-6069.688724,-81206.122788
849.009657,1036.288319,11547.212695,-76456.330700
849.012171,-740.205942,6069.688724,-77835.302597
849.014685,-296.082377,14952.160028,-79061.055394
849.017199,-1036.288319,7105.977043,-78907.836294
849.019713,0.000000,5625.565159,-80746.465489
849.022227,-296.082377,2516.700203,-78754.617194
849.024741,-444.123565,592.164754,-79061.055394
849.027254,296.082377,5625.565159,-78294.959896
849.029768,-888.247130,-1184.329507,-79520.712692
849.032282,592.164754,-8142.265362,-78754.617194
849.034796,-444.123565,-17468.860231,-80746.465489
849.037310,-592.164754,-16728.654289,-79367.493593
849.039824,-592.164754,-12435.459826,-78294.959896
849.042338,-888.247130,-9326.594869,-79980.369991
849.044852,1036.288319,-1184.329507,-78448.178995
849.047366,-888.247130,-444.123565,-78141.740796
849.049880,-296.082377,148.041188,-78754.617194
849.052394,-1184.329507,-1628.453072,-79367.493593
849.054908,888.247130,-7105.977043,-79520.712692
849.057422,-444.123565,-7994.224174,-78907.836294
849.059936,0.000000,-10955.047942,-79061.055394
849.062450,-1628.453072,-12139.377449,-79367.493593
849.064964,592.164754,-13471.748144,-78907.836294
849.067478,296.082377,-7402.059420,-79520.712692
849.069992,-592.164754,-7550.100608,-80286.808190
849.072506,-1184.329507,-1184.329507,-78907.836294
849.075020,296.082377,-7698.141797,-80133.589091
849.077534,-888.247130,-1924.535449,-79061.055394
849.080048,148.041188,3552.988522,-79214.274493
849.082572,-1184.329507,11103.089130,-79061.055394
849.085097,0.000000,13767.830521,-78294.959896
849.087622,740.205942,11695.253884,-79214.274493
849.090147,-1628.453072,6661.853478,-78754.617194
849.092673,0.000000,1184.329507,-78448.178995
849.095198,-148.041188,-3552.988522,-79673.931792
849.097723,888.247130,-5329.482782,-78907.836294
849.100248,0.000000,296.082377,-79827.150892
849.102773,740.205942,5477.523971,-78448.178995
849.105298,-1184.329507,-444.123565,-79061.055394
849.107823,-592.164754,6809.894666,-78601.398095
849.110348,148.041188,11103.089130,-79673.931792
849.112873,444.123565,11103.089130,-79980.369991
849.115398,-888.247130,5625.565159,-79061.055394
849.117923,148.041188,3849.070898,-78754.617194
849.120448,-1332.370696,1480.411884,-77835.302597
849.122973,148.041188,3552.988522,-78448.178995
849.125498,0.000000,-1924.535449,-78907.836294
849.128023,296.082377,-10066.800811,-78754.617194
849.130548,296.082377,-16580.613101,-79673.931792
849.133073,-1628.453072,-16136.489536,-78754.617194
849.135599,740.205942,-14211.954086,-79520.712692
849.138124,-1036.288319,-7846.182985,-79520.712692
849.140649,1184.329507,-2812.782580,-79520.712692
849.143174,-444.123565,2812.782580,-78294.959896
849.145699,0.000000,2220.617826,-78448.178995
849.148224,-888.247130,-2960.823768,-79520.712692
849.150749,444.123565,-13175.665768,-80899.684589
849.153274,0.000000,-7994.224174,-79673.931792
849.155799,-444.123565,-7994.224174,-78294.959896
849.158324,-1776.494261,-11695.253884,-78907.836294
849.160849,1036.288319,-12731.542202,-79673.931792
849.163374,-888.247130,-9474.636058,-78907.836294
849.165899,888.247130,-6957.935855,-79673.931792
849.168424,-1036.288319,-3849.070898,-78601.398095
849.170949,2072.576638,-6217.729913,-79673.931792
849.173474,-1480.411884,2220.617826,-78907.836294
849.175999,-1480.411884,5181.441594,-79980.369991
849.178525,-148.041188,11843.295072,-78294.959896
849.181050,-296.082377,11547.212695,-79827.150892
849.183584,-740.205942,11251.130318,-78601.398095
849.186118,-1776.494261,3849.070898,-80133.589091
849.188653,-148.041188,-444.123565,-78448.178995
849.191187,-296.082377,-1924.535449,-78754.617194
849.193722,296.082377,-5773.606348,-80746.465489
849.196256,-148.041188,-888.247130,-79673.931792
849.198791,0.000000,6069.688724,-78294.959896
849.201325,-1184.329507,8882.471304,-77375.645298
849.203860,296.082377,6217.729913,-78448.178995
849.206394,-444.123565,11991.336260,-79980.369991
849.208929,444.123565,7846.182985,-79980.369991
849.211463,-2072.576638,4441.235652,-79367.493593
849.213997,-296.082377,3997.112087,-78448.178995
849.216532,-1628.453072,1480.411884,-78907.836294
849.219066,592.164754,2072.576638,-77682.083497
849.221601,296.082377,-8142.265362,-79673.931792
849.224135,592.164754,-10214.842000,-79061.055394
849.226670,-1036.288319,-18357.107362,-79673.931792
849.229204,-592.164754,-12731.542202,-79367.493593
849.231739,-1332.370696,-13915.871710,-80133.589091
849.234273,1184.329507,-2516.700203,-79520.712692
849.236807,-888.247130,-1332.370696,-79520.712692
849.239342,148.041188,296.082377,-77988.521696
849.241876,-1776.494261,1628.453072,-79061.055394
849.244411,296.082377,-6365.771101,-78754.617194
849.246945,-1924.535449,-14804.118840,-79827.150892
849.249480,296.082377,-4589.276840,-79520.712692
849.252014,-740.205942,-18209.066173,-81512.560987
849.254549,1036.288319,-9770.718434,-78448.178995
849.257083,-740.205942,-11251.130318,-78448.178995
849.259618,888.247130,-4293.194464,-79367.493593
849.262152,-2516.700203,-5329.482782,-79061.055394
849.264686,444.123565,-3997.112087,-80286.808190
849.267221,-1036.288319,-888.247130,-78448.178995
849.269755,-740.205942,7846.182985,-79520.712692
849.272290,-296.082377,11695.253884,-78601.398095
849.274824,1036.288319,12731.542202,-80593.246390
849.277359,-444.123565,9474.636058,-79214.274493
849.279893,-740.205942,8438.347739,-78448.178995
849.282428,-444.123565,1332.370696,-78448.178995
849.284970,-592.164754,-5773.606348,-78141.740796
849.287512,444.123565,-2664.741391,-78448.178995
849.290055,148.041188,7254.018232,-76609.549800
849.292597,-1036.288319,0.000000,-81359.341888
849.295140,-2072.576638,2812.782580,-80133.589091
849.297682,740.205942,6661.853478,-79061.055394
849.300224,592.164754,12731.542202,-78601.398095
849.302767,740.205942,12287.418637,-79061.055394
849.305309,-1628.453072,6217.729913,-79214.274493
849.307852,-888.247130,4293.194464,-78294.959896
849.310394,-148.041188,592.164754,-79980.369991
849.312936,1184.329507,444.123565,-78754.617194
849.315479,-888.247130,-8586.388927,-78601.398095
849.318021,740.205942,-10807.006753,-78448.178995
849.320564,-1628.453072,-16580.613101,-79061.055394
849.323106,-592.164754,-14508.036463,-81052.903688
849.325648,-444.123565,-13767.830521,-79520.712692
849.328191,1332.370696,-5773.606348,-80286.808190
849.330733,-1184.329507,148.041188,-78907.836294
849.333276,-888.247130,3701.029710,-79214.274493
849.335818,-296.082377,-444.123565,-77528.864398
849.338360,-444.123565,-7254.018232,-79520.712692
849.340903,0.000000,-7402.059420,-78754.617194
849.343445,-444.123565,-10362.883188,-80286.808190
849.345987,0.000000,-10807.006753,-79673.931792
849.348530,-740.205942,-15248.242405,-79214.274493
849.351072,-1776.494261,-7550.100608,-78294.959896
849.353615,148.041188,-7994.224174,-79827.150892
849.356157,-592.164754,-2664.741391,-80440.027290
849.358699,-740.205942,-8734.430116,-80746.465489
849.361242,-1184.329507,592.164754,-78448.178995
849.363784,-2072.576638,5921.647536,-78448.178995
849.366327,296.082377,14656.077652,-77988.521696
849.368869,-148.041188,13175.665768,-79061.055394
849.371411,1776.494261,11251.130318,-78294.959896
849.373954,-2368.659014,3701.029710,-79673.931792
849.376496,1628.453072,2368.659014,-78601.398095
849.379039,-2664.741391,-6365.771101,-79061.055394
849.381581,1036.288319,444.123565,-79827.150892
849.384123,-888.247130,-4589.276840,-81512.560987
849.386672,0.000000,9178.553681,-78754.617194
849.389220,-444.123565,4885.359217,-78754.617194
849.391768,296.082377,9770.718434,-80746.465489
849.394316,-444.123565,8290.306550,-79367.493593
849.396864,740.205942,8586.388927,-79061.055394
849.399412,-1184.329507,7994.224174,-77222.426198
849.401961,-888.247130,2072.576638,-79367.493593
849.404509,-1924.535449,4293.194464,-78601.398095
849.407057,296.082377,740.205942,-79061.055394
849.409605,148.041188,-9474.636058,-79827.150892
849.412153,-148.041188,-14804.118840,-79673.931792
849.414701,-1036.288319,-14952.160028,-80593.246390
849.417250,-1036.288319,-15544.324782,-78601.398095
849.419798,-444.123565,-11695.253884,-79520.712692
849.422346,1184.329507,-4145.153275,-77682.083497
849.424894,-592.164754,3997.112087,-79061.055394
849.427442,-1036.288319,3404.947333,-77988.521696
849.429990,-444.123565,-1036.288319,-79061.055394
849.432539,444.123565,-12583.501014,-80286.808190
849.435087,148.041188,-4293.194464,-78601.398095
849.437635,-296.082377,-12435.459826,-80286.808190
849.440183,-888.247130,-9918.759623,-78294.959896
849.442731,-1036.288319,-16284.530724,-79367.493593
849.445279,-592.164754,-7402.059420,-77682.083497
849.447828,296.082377,-8438.347739,-78907.836294
849.450376,-148.041188,-4737.318029,-79673.931792
849.452924,740.205942,-6217.729913,-78754.617194
849.455472,-888.247130,2072.576638,-79827.150892
849.458020,-1184.329507,9030.512492,-78294.959896
849.460568,444.123565,13027.624579,-79367.493593
849.463117,1332.370696,11991.336260,-79827.150892
849.465665,-1184.329507,10955.047942,-78294.959896
849.468213,-592.164754,2072.576638,-80286.808190
849.470761,-1036.288319,-2072.576638,-79061.055394
849.473309,296.082377,-5033.400406,-78141.740796
849.475857,1036.288319,740.205942,-78141.740796
849.478406,-592.164754,1332.370696,-80440.027290
849.480954,-1036.288319,1924.535449,-79214.274493
849.483502,-1036.288319,6957.935855,-78448.178995
849.486050,148.041188,11251.130318,-78601.398095
849.488604,0.000000,11103.089130,-78907.836294
849.491157,-1332.370696,8142.265362,-79367.493593
849.493710,444.123565,5181.441594,-79061.055394
849.496264,-1776.494261,444.123565,-79214.274493
849.498817,740.205942,4885.359217,-78141.740796
849.501371,-740.205942,-1776.494261,-79367.493593
849.503924,1036.288319,-10955.047942,-79061.055394
849.506478,-148.041188,-17616.901420,-79980.369991
849.509031,-2220.617826,-15692.365970,-79061.055394
849.511585,444.123565,-14211.954086,-79827.150892
849.514138,-1036.288319,-6217.729913,-78754.617194
849.516691,1924.535449,740.205942,-79673.931792
849.519245,-1184.329507,-1924.535449,-79061.055394
849.521798,-888.247130,5773.606348,-76915.987999
849.524352,-1628.453072,-7698.141797,-78601.398095
849.526905,592.164754,-7105.977043,-78907.836294
849.529459,1036.288319,-9030.512492,-78448.178995
849.532012,-1184.329507,-14656.077652,-79367.493593
849.534565,888.247130,-13471.748144,-80133.589091
849.537119,-1332.370696,-11251.130318,-80286.808190
849.539672,444.123565,-6069.688724,-78907.836294
849.542226,-1036.288319,-3701.029710,-79520.712692
849.544779,1184.329507,-5625.565159,-78601.398095
849.547333,-1332.370696,-4145.153275,-79367.493593
849.549886,-740.205942,7550.100608,-78907.836294
849.552440,-592.164754,11399.171507,-78294.959896
849.554993,-148.041188,14656.077652,-78754.617194
849.557546,444.123565,10214.842000,-78601.398095
849.560100,-148.041188,9326.594869,-79673.931792
849.562653,-1036.288319,-888.247130,-79520.712692
849.565207,-444.123565,-2664.741391,-79673.931792
849.567760,444.123565,-8142.265362,-78448.178995
849.570317,148.041188,10066.800811,-77528.864398
849.572874,-1776.494261,-888.247130,-79061.055394
849.575431,-592.164754,7254.018232,-80286.808190
849.577989,-1480.411884,7402.059420,-77835.302597
849.580546,888.247130,13323.706956,-78907.836294
849.583103,-1480.411884,8882.471304,-78907.836294
849.585660,-296.082377,6513.812290,-79673.931792
849.588217,-1480.411884,3552.988522,-79367.493593
849.590774,888.247130,888.247130,-79673.931792
849.593331,-740.205942,148.041188,-79061.055394
849.595888,1332.370696,-14063.912898,-78907.836294
849.598445,-296.082377,-14211.954086,-78907.836294
849.601003,-1628.453072,-18061.024985,-79980.369991
849.603560,-296.082377,-11547.212695,-78907.836294
849.606117,-1184.329507,-11547.212695,-79367.493593
849.608674,1332.370696,-1184.329507,-78754.617194
849.611231,-2072.576638,888.247130,-79214.274493
849.613788,-740.205942,-3108.864956,-79214.274493
849.616345,-1776.494261,-296.082377,-79214.274493
849.618902,444.123565,-8734.430116,-79367.493593
849.621459,888.247130,-7254.018232,-78448.178995
849.624016,-148.041188,-12139.377449,-78448.178995
849.626574,-148.041188,-13915.871710,-79980.369991
849.629131,-592.164754,-13619.789333,-78601.398095
849.631688,-740.205942,-11103.089130,-80286.808190
849.634245,-148.041188,-3108.864956,-78907.836294
849.636802,1184.329507,-7105.977043,-79827.150892
849.639359,-592.164754,-1332.370696,-79367.493593
849.641916,-740.205942,7402.059420,-79214.274493
849.644473,-888.247130,12731.542202,-79827.150892
849.647030,-296.082377,14063.912898,-79520.712692
849.649587,-148.041188,10658.965565,-79367.493593
849.652145,-740.205942,592.164754,-79061.055394
849.654702,-740.205942,-1332.370696,-77682.083497
849.657259,-296.082377,-4293.194464,-80593.246390
849.659816,444.123565,1036.288319,-79061.055394
849.662373,-148.041188,-1776.494261,-79214.274493
849.664930,0.000000,6513.812290,-77988.521696
849.667487,-444.123565,5033.400406,-77528.864398
849.670044,0.000000,9918.759623,-80133.589091
849.672605,296.082377,13027.624579,-78294.959896
849.675165,-148.041188,6957.935855,-79980.369991
849.677726,296.082377,7105.977043,-79520.712692
849.680286,-2960.823768,888.247130,-79827.150892
849.682847,592.164754,5181.441594,-78141.740796
849.685407,0.000000,-3849.070898,-78601.398095
849.687968,444.123565,-12139.377449,-79061.055394
849.690528,-296.082377,-19541.436869,-79673.931792
849.693089,-1924.535449,-15988.448347,-79214.274493
849.695649,0.000000,-15544.324782,-78601.398095
849.698210,0.000000,-2220.617826,-77682.083497
849.700770,1628.453072,296.082377,-79367.493593
849.703331,-1184.329507,2812.782580,-78907.836294
849.705891,-1036.288319,-5625.565159,-80286.808190
849.708452,-444.123565,1480.411884,-79061.055394
849.711012,444.123565,-11399.171507,-79673.931792
849.713572,-296.082377,-14804.118840,-81052.903688
849.716133,444.123565,-9326.594869,-77835.302597
849.718693,-740.205942,-16580.613101,-79367.493593
849.721254,-2220.617826,-8734.430116,-79214.274493
849.723814,444.123565,-9178.553681,-79061.055394
849.726375,740.205942,-4145.153275,-79673.931792
849.728935,888.247130,-7550.100608,-79673.931792
849.731496,-1776.494261,2664.741391,-79673.931792
849.734056,-1036.288319,7846.182985,-79980.369991
849.736617,-148.041188,16432.571912,-78294.959896
849.739177,1628.453072,10658.965565,-79827.150892
849.741738,592.164754,11547.212695,-77988.521696
849.744298,-1332.370696,1628.453072,-78907.836294
849.746859,-444.123565,-2368.659014,-78448.178995
849.749419,148.041188,-4441.235652,-80286.808190
849.751980,1184.329507,1776.494261,-78294.959896
849.754540,-1480.411884,4885.359217,-78601.398095
849.757101,-444.123565,888.247130,-79520.712692
849.759661,296.082377,9178.553681,-77988.521696
849.762222,1036.288319,9030.512492,-79673.931792
849.764782,-296.082377,12287.418637,-79673.931792
849.767343,592.164754,6809.894666,-79214.274493
849.769903,-1776.494261,6365.771101,-79520.712692
849.772464,-1184.329507,2220.617826,-78448.178995
849.775027,-1184.329507,2516.700203,-78907.836294
849.777590,1332.370696,-11991.336260,-78754.617194
849.780153,296.082377,-14508.036463,-78294.959896
849.782716,148.041188,-20725.766376,-79673.931792
849.785280,-1776.494261,-13915.871710,-79061.055394
849.787843,-296.082377,-13915.871710,-79214.274493
849.790406,-296.082377,-1480.411884,-79367.493593
849.792969,1480.411884,592.164754,-79520.712692
849.795532,-740.205942,4293.194464,-78907.836294
849.798096,-296.082377,-2072.576638,-79827.150892
849.800659,-148.041188,-6957.935855,-79827.150892
849.803222,740.205942,-11103.089130,-79673.931792
849.805785,1480.411884,-13027.624579,-78601.398095
849.808348,-1332.370696,-13619.789333,-77682.083497
849.810911,-1184.329507,-12287.418637,-79980.369991
849.813475,-888.247130,-9030.512492,-79673.931792
849.816038,-888.247130,-6365.771101,-79827.150892
849.818601,1332.370696,-4589.276840,-79214.274493
849.821164,-148.041188,-2960.823768,-79214.274493
849.823727,-2664.741391,9770.718434,-78754.617194
849.826291,-1332.370696,10214.842000,-79673.931792
849.828854,-148.041188,15248.242405,-78754.617194
849.831417,1332.370696,11103.089130,-78907.836294
849.833980,-592.164754,8882.471304,-78754.617194
849.836543,444.123565,-1776.494261,-78907.836294
849.839107,-1036.288319,-2664.741391,-78907.836294
849.841670,592.164754,-6513.812290,-80899.684589
849.844233,592.164754,3997.112087,-80133.589091
849.846796,-592.164754,2220.617826,-79367.493593
849.849359,-148.041188,8438.347739,-77069.207099
849.851923,148.041188,8586.388927,-78294.959896
849.854486,1036.288319,13175.665768,-79214.274493
849.857049,-296.082377,9770.718434,-77988.521696
849.859612,740.205942,3997.112087,-79061.055394
849.862175,-2960.823768,3404.947333,-78601.398095
849.864739,444.123565,2664.741391,-78754.617194
849.867302,148.041188,-2960.823768,-78601.398095
849.869865,-148.041188,-14211.954086,-78601.398095
849.872428,1332.370696,-18061.024985,-79367.493593
849.874991,-1776.494261,-17320.819043,-78907.836294
849.877556,740.205942,-13323.706956,-79673.931792
849.880120,-296.082377,-3849.070898,-78294.959896
849.882685,2516.700203,-1924.535449,-79673.931792
849.885249,-1332.370696,-1924.535449,-79061.055394
849.887814,-740.205942,5329.482782,-78294.959896
849.890378,-740.205942,-3849.070898,-79980.369991
849.892943,-1776.494261,-13915.871710,-81818.999186
