#time,accel_x,accel_y,accel_z
212.991189,1332.370696,-9326.594869,-76762.768900
212.993903,-1184.329507,-1924.535449,-77375.645298
212.996618,-1776.494261,1036.288319,-77375.645298
212.999333,888.247130,296.082377,-76149.892501
213.002048,-1924.535449,-6069.688724,-77835.302597
213.004755,-1924.535449,-3256.906145,-80899.684589
213.007462,2812.782580,-4293.194464,-79520.712692
213.010169,-1924.535449,-1332.370696,-79673.931792
213.012876,-1924.535449,3849.070898,-80440.027290
213.015582,740.205942,3701.029710,-77375.645298
213.018289,1184.329507,3256.906145,-78141.740796
213.020996,1924.535449,5329.482782,-79980.369991
213.023703,-1036.288319,1332.370696,-77835.302597
213.026410,-296.082377,-2220.617826,-78141.740796
213.029117,-3701.029710,-1480.411884,-79673.931792
213.031823,1924.535449,-2664.741391,-78294.959896
213.034530,1776.494261,-2812.782580,-78294.959896
213.037237,-1924.535449,4441.235652,-79520.712692
213.039944,-444.123565,8586.388927,-78601.398095
213.042651,296.082377,-1480.411884,-80286.808190
213.045358,-592.164754,1184.329507,-80133.589091
213.048064,296.082377,-3404.947333,-77375.645298
213.050771,592.164754,2368.659014,-75383.797003
213.053478,-3997.112087,-2368.659014,-77835.302597
213.056185,-148.041188,5625.565159,-77528.864398
213.058892,1332.370696,2664.741391,-76149.892501
213.061599,-1924.535449,3701.029710,-76303.111601
213.064305,592.164754,6661.853478,-77528.864398
213.067012,-296.082377,1480.411884,-79061.055394
213.069719,-4441.235652,2072.576638,-79673.931792
213.072426,-1184.329507,-2072.576638,-79520.712692
213.075133,296.082377,-1184.329507,-75996.673402
213.077840,-592.164754,-3849.070898,-77375.645298
213.080547,-592.164754,3108.864956,-77375.645298
213.083253,2960.823768,3404.947333,-76456.330700
213.085960,-1332.370696,4737.318029,-77222.426198
213.088667,-888.247130,3997.112087,-77528.864398
213.091374,-148.041188,1036.288319,-76609.549800
213.094081,-888.247130,-444.123565,-78141.740796
213.096788,-1924.535449,-5921.647536,-82125.437386
213.099494,740.205942,-9918.759623,-79214.274493
213.102201,-1184.329507,-11399.171507,-79980.369991
213.104908,-740.205942,-2220.617826,-78601.398095
213.107615,1480.411884,-5033.400406,-78601.398095
213.110322,888.247130,-1628.453072,-77988.521696
213.113014,-888.247130,296.082377,-79214.274493
213.115706,740.205942,-3256.906145,-77682.083497
213.118398,0.000000,-8882.471304,-77988.521696
213.121090,-2516.700203,-6513.812290,-80593.246390
213.123782,148.041188,-6661.853478,-79367.493593
213.126474,1776.494261,-7550.100608,-80133.589091
213.129166,-3997.112087,-1776.494261,-78754.617194
213.131858,1628.453072,-1184.329507,-79367.493593
213.134550,888.247130,-4293.194464,-79214.274493
213.137242,-2220.617826,444.123565,-80133.589091
213.139934,0.000000,-5625.565159,-79214.274493
213.142626,296.082377,-9622.677246,-75537.016103
213.145318,-1776.494261,-2220.617826,-76915.987999
213.148010,-1036.288319,-10510.924376,-79520.712692
213.150702,1036.288319,6513.812290,-74004.825107
213.153394,-1332.370696,-11399.171507,-78448.178995
213.156086,1924.535449,4589.276840,-77835.302597
213.158778,-1036.288319,-8142.265362,-75537.016103
213.161470,-1924.535449,-2812.782580,-80133.589091
213.164162,1184.329507,296.082377,-76915.987999
213.166854,-740.205942,-17024.736666,-79673.931792
213.169546,0.000000,-6513.812290,-76303.111601
213.172238,-1628.453072,-7254.018232,-77222.426198
213.174930,3404.947333,2072.576638,-74617.701505
213.177622,-3108.864956,-6809.894666,-77682.083497
213.180314,-296.082377,3849.070898,-76609.549800
213.183006,0.000000,-6957.935855,-75843.454302
213.185698,-592.164754,-6513.812290,-77069.207099
213.188390,-3404.947333,-9770.718434,-82125.437386
213.191082,2072.576638,-5181.441594,-79061.055394
213.193774,-1924.535449,-7846.182985,-79520.712692
213.196466,-148.041188,-3552.988522,-80593.246390
213.199158,2368.659014,-3849.070898,-77222.426198
213.201850,444.123565,1184.329507,-77682.083497
213.204542,-740.205942,8290.306550,-78907.836294
213.207234,-592.164754,8290.306550,-79061.055394
213.209926,-2072.576638,1628.453072,-78601.398095
213.212618,-2072.576638,1924.535449,-79214.274493
213.215310,1184.329507,-2072.576638,-78601.398095
213.218002,2072.576638,-2960.823768,-78448.178995
213.220681,-2664.741391,-2072.576638,-82125.437386
213.223359,296.082377,2664.741391,-78601.398095
213.226037,1332.370696,1184.329507,-79061.055394
213.228715,-444.123565,7105.977043,-79520.712692
213.231393,296.082377,2664.741391,-79673.931792
213.234071,-148.041188,148.041188,-77835.302597
213.236749,-3108.864956,1480.411884,-78907.836294
213.239428,296.082377,-1628.453072,-78141.740796
213.242106,1184.329507,-4441.235652,-74924.139704
213.244784,-3404.947333,-3552.988522,-77528.864398
213.247462,0.000000,7846.182985,-76609.549800
213.250140,-740.205942,-1776.494261,-78754.617194
213.252818,-3404.947333,-148.041188,-80899.684589
213.255496,-740.205942,-740.205942,-77835.302597
213.258174,444.123565,2960.823768,-75383.797003
213.260853,-1184.329507,-2812.782580,-77682.083497
213.263531,-1184.329507,5181.441594,-77835.302597
213.266209,1036.288319,-148.041188,-77835.302597
213.268887,-1628.453072,3552.988522,-77069.207099
213.271565,-592.164754,6513.812290,-76762.768900
213.274243,592.164754,2960.823768,-77069.207099
213.276921,-2220.617826,-1332.370696,-79520.712692
213.279600,-2664.741391,148.041188,-79520.712692
213.282278,3256.906145,-1184.329507,-77528.864398
213.284956,-1184.329507,-1332.370696,-80593.246390
213.287634,-1036.288319,2664.741391,-79367.493593
213.290312,592.164754,1628.453072,-77988.521696
213.292990,1480.411884,592.164754,-76456.330700
213.295668,-740.205942,5477.523971,-79367.493593
213.298347,-444.123565,2812.782580,-77682.083497
213.301025,-2072.576638,-2516.700203,-78907.836294
213.303703,-1776.494261,-7846.182985,-79367.493593
213.306381,444.123565,-8586.388927,-77988.521696
213.309059,1776.494261,-11251.130318,-79061.055394
213.311737,-4145.153275,-4589.276840,-79980.369991
213.314415,1628.453072,-2664.741391,-78907.836294
213.317093,-148.041188,-3108.864956,-78141.740796
213.319772,-1332.370696,148.041188,-79827.150892
213.322450,1776.494261,-1332.370696,-77375.645298
213.325128,444.123565,-4293.194464,-76456.330700
213.327793,-3256.906145,-8734.430116,-79520.712692
213.330459,-296.082377,-4293.194464,-78294.959896
213.333124,-1184.329507,-7846.182985,-75996.673402
213.335790,-1332.370696,-7846.182985,-77375.645298
213.338455,-1480.411884,444.123565,-78448.178995
213.341120,1036.288319,-4737.318029,-78141.740796
213.343786,-4293.194464,-148.041188,-79673.931792
213.346451,592.164754,5181.441594,-77222.426198
213.349117,-148.041188,-9770.718434,-76149.892501
213.351782,-296.082377,-11251.130318,-78448.178995
213.354448,-1184.329507,5329.482782,-76609.549800
213.357113,2072.576638,-8734.430116,-78448.178995
213.359778,-2516.700203,-6365.771101,-80440.027290
213.362444,0.000000,-2960.823768,-79827.150892
213.365109,296.082377,-5477.523971,-78141.740796
213.367775,-1036.288319,-9326.594869,-80440.027290
213.370440,-2368.659014,-5773.606348,-81359.341888
213.373106,1628.453072,-5329.482782,-80593.246390
213.375771,-296.082377,-4293.194464,-78294.959896
213.378436,-1184.329507,888.247130,-77222.426198
213.381102,740.205942,-2368.659014,-77528.864398
213.383767,592.164754,-6661.853478,-76609.549800
213.386433,-2516.700203,-6957.935855,-79827.150892
213.389098,-444.123565,-4145.153275,-79214.274493
213.391763,740.205942,-8290.306550,-78907.836294
213.394429,-3256.906145,-3404.947333,-79061.055394
213.397094,1628.453072,-5329.482782,-78601.398095
213.399760,3404.947333,-2220.617826,-77835.302597
213.402425,-444.123565,3552.988522,-76762.768900
213.405091,-2516.700203,10807.006753,-77375.645298
213.407756,2220.617826,5181.441594,-77528.864398
213.410421,-2072.576638,1776.494261,-77069.207099
213.413087,-148.041188,592.164754,-76149.892501
213.415752,296.082377,-3701.029710,-75996.673402
213.418418,-1776.494261,-5477.523971,-79367.493593
213.421083,-444.123565,740.205942,-77835.302597
213.423749,1332.370696,444.123565,-77222.426198
213.426414,-1184.329507,-296.082377,-78141.740796
213.429079,-1184.329507,7402.059420,-77682.083497
213.431745,-592.164754,5773.606348,-77528.864398
213.434297,-2220.617826,-148.041188,-79980.369991
213.436849,-888.247130,4441.235652,-78754.617194
213.439401,2072.576638,-1924.535449,-75383.797003
213.441952,-296.082377,-5773.606348,-76456.330700
213.444504,-1332.370696,-8586.388927,-76762.768900
213.447056,3256.906145,14359.995275,-78448.178995
213.449608,-1332.370696,-10362.883188,-80746.465489
213.452160,-1036.288319,8438.347739,-79367.493593
213.454712,148.041188,-296.082377,-78754.617194
213.457264,-2812.782580,-444.123565,-79980.369991
213.459816,-1776.494261,4293.194464,-81512.560987
213.462367,2220.617826,2220.617826,-78907.836294
213.464919,-444.123565,1628.453072,-78907.836294
213.467471,0.000000,5921.647536,-78907.836294
213.470023,-148.041188,4589.276840,-77988.521696
213.472575,-444.123565,-1332.370696,-78141.740796
213.475127,-2812.782580,-296.082377,-80286.808190
213.477679,888.247130,2072.576638,-79367.493593
213.480231,0.000000,1924.535449,-77682.083497
213.482783,-3552.988522,1332.370696,-80440.027290
213.485334,2072.576638,3108.864956,-77835.302597
213.487886,1036.288319,-592.164754,-79520.712692
213.490438,-740.205942,3849.070898,-76456.330700
213.492990,-1924.535449,1776.494261,-78448.178995
213.495542,1332.370696,-5625.565159,-75383.797003
213.498094,-3108.864956,-11547.212695,-78141.740796
213.500646,-148.041188,-9918.759623,-77375.645298
213.503198,-592.164754,-8290.306550,-76149.892501
213.505749,-888.247130,-7994.224174,-78141.740796
213.508301,-444.123565,-888.247130,-78141.740796
213.510853,888.247130,-3256.906145,-76456.330700
213.513405,-1776.494261,-4589.276840,-77988.521696
213.515957,-2812.782580,-2516.700203,-79520.712692
213.518509,740.205942,-6513.812290,-77835.302597
213.521061,-888.247130,-9326.594869,-79520.712692
213.523613,444.123565,-6513.812290,-77682.083497
213.526164,1184.329507,-6217.729913,-75996.673402
213.528716,-1628.453072,-8142.265362,-76456.330700
213.531268,-592.164754,-592.164754,-76609.549800
213.533820,1628.453072,-1628.453072,-79673.931792
213.536392,-296.082377,-3552.988522,-79827.150892
213.538964,-1036.288319,-3108.864956,-81052.903688
213.541536,1184.329507,-148.041188,-78754.617194
213.544108,-1924.535449,-5477.523971,-80746.465489
213.546680,-1628.453072,-4441.235652,-82125.437386
213.549252,2812.782580,-1480.411884,-77835.302597
213.551823,-740.205942,-10658.965565,-77222.426198
213.554395,-1332.370696,-5033.400406,-77682.083497
213.556967,444.123565,-7550.100608,-77682.083497
213.559539,-1332.370696,-6513.812290,-77222.426198
213.562111,-3701.029710,-2812.782580,-78294.959896
213.564683,-740.205942,1924.535449,-78754.617194
213.567255,1036.288319,-4441.235652,-79214.274493
213.569827,-2368.659014,-2368.659014,-78141.740796
213.572399,888.247130,-5921.647536,-79061.055394
213.574971,444.123565,-8586.388927,-78294.959896
213.577543,-740.205942,-6957.935855,-77528.864398
213.580114,-2960.823768,-4145.153275,-77222.426198
213.582686,1036.288319,-5773.606348,-75996.673402
213.585258,-1036.288319,-3997.112087,-77222.426198
213.587830,0.000000,7254.018232,-76915.987999
213.590402,-444.123565,5773.606348,-76915.987999
213.592974,-2664.741391,8142.265362,-77988.521696
213.595546,1480.411884,6217.729913,-77528.864398
213.598118,1924.535449,2072.576638,-78141.740796
213.600690,0.000000,-5181.441594,-78754.617194
213.603262,-2072.576638,-1628.453072,-78907.836294
213.605833,444.123565,-2960.823768,-77835.302597
213.608405,-1480.411884,-2812.782580,-79214.274493
213.610977,-296.082377,4589.276840,-77682.083497
213.613549,3108.864956,5033.400406,-76149.892501
213.616121,296.082377,2960.823768,-78141.740796
213.618693,1628.453072,7698.141797,-78294.959896
213.621265,2960.823768,3997.112087,-77375.645298
213.623837,296.082377,-9030.512492,-77988.521696
213.626409,-2812.782580,5181.441594,-78294.959896
213.628981,-1776.494261,-3701.029710,-79827.150892
213.631553,-2220.617826,-1628.453072,-79673.931792
213.634124,296.082377,2812.782580,-81359.341888
213.636696,740.205942,2960.823768,-79367.493593
213.639190,-888.247130,-2812.782580,-80440.027290
213.641688,0.000000,3552.988522,-78448.178995
213.644187,1036.288319,4885.359217,-78754.617194
213.646685,-740.205942,4589.276840,-76609.549800
213.649184,-2960.823768,3108.864956,-78754.617194
213.651682,444.123565,4441.235652,-77988.521696
213.654181,-1184.329507,-444.123565,-78448.178995
213.656680,-1924.535449,-1036.288319,-80593.246390
213.659178,740.205942,4441.235652,-78448.178995
213.661677,1480.411884,-888.247130,-79061.055394
213.664175,-888.247130,0.000000,-77528.864398
213.666674,-1480.411884,2960.823768,-77069.207099
213.669172,2516.700203,148.041188,-75996.673402
213.671671,-1480.411884,2368.659014,-76762.768900
213.674170,-1628.453072,2072.576638,-78141.740796
213.676668,296.082377,-5921.647536,-76762.768900
213.679167,-1332.370696,-10214.842000,-78907.836294
213.681665,-148.041188,-11547.212695,-77222.426198
213.684164,148.041188,-9030.512492,-76456.330700
213.686662,-740.205942,-5477.523971,-78754.617194
213.689161,-592.164754,-296.082377,-79980.369991
213.691660,444.123565,-1184.329507,-77375.645298
213.694158,444.123565,-5033.400406,-77682.083497
213.696657,-888.247130,-1628.453072,-78141.740796
213.699155,148.041188,-8734.430116,-78141.740796
213.701654,-1036.288319,-6069.688724,-77988.521696
213.704153,1036.288319,-8734.430116,-78448.178995
213.706651,888.247130,-4589.276840,-78448.178995
213.709150,1036.288319,-6069.688724,-77528.864398
213.711648,-2664.741391,2368.659014,-79673.931792
213.714147,1036.288319,-5329.482782,-80593.246390
213.716645,-296.082377,-1924.535449,-78448.178995
213.719144,-444.123565,1036.288319,-80133.589091
213.721643,-444.123565,-4589.276840,-79673.931792
213.724141,0.000000,-2812.782580,-78754.617194
213.726640,-444.123565,-5625.565159,-80746.465489
213.729138,1332.370696,-6069.688724,-78907.836294
213.731637,-1776.494261,-6661.853478,-75077.358804
213.734135,-1628.453072,-8438.347739,-77988.521696
213.736634,444.123565,-1628.453072,-78294.959896
213.739166,-592.164754,-8882.471304,-78907.836294
213.741697,-2368.659014,888.247130,-78294.959896
213.744229,0.000000,-4145.153275,-79827.150892
213.746761,444.123565,-5033.400406,-78907.836294
213.749292,-2368.659014,-8142.265362,-77835.302597
213.751824,-592.164754,-3404.947333,-77528.864398
213.754356,740.205942,-7550.100608,-75230.577904
213.756887,-444.123565,-5773.606348,-76609.549800
213.759419,-1924.535449,-4145.153275,-77069.207099
213.761950,740.205942,-1184.329507,-76456.330700
213.764482,-2664.741391,3701.029710,-78448.178995
213.767014,-444.123565,7994.224174,-77835.302597
213.769545,-296.082377,4737.318029,-76303.111601
213.772077,296.082377,4885.359217,-77682.083497
213.774609,-1036.288319,2220.617826,-79214.274493
213.777140,1628.453072,0.000000,-76915.987999
213.779672,-592.164754,-5921.647536,-77069.207099
213.782204,-2220.617826,592.164754,-78294.959896
213.784735,-296.082377,1776.494261,-78907.836294
213.787267,1184.329507,3256.906145,-76609.549800
213.789799,-3108.864956,5921.647536,-78907.836294
213.792330,1480.411884,6661.853478,-79061.055394
213.794862,296.082377,888.247130,-77069.207099
213.797393,-1184.329507,-4589.276840,-76609.549800
213.799925,-888.247130,-148.041188,-76609.549800
213.802457,888.247130,-3997.112087,-75996.673402
213.804988,-1924.535449,-2072.576638,-77988.521696
213.807520,-1184.329507,2960.823768,-77069.207099
213.810052,1184.329507,-1776.494261,-75843.454302
213.812583,-1628.453072,1924.535449,-78141.740796
213.815115,-1924.535449,7105.977043,-80593.246390
213.817647,1776.494261,2812.782580,-80899.684589
213.820202,592.164754,2664.741391,-79214.274493
213.822758,-1036.288319,1184.329507,-78754.617194
213.825314,3108.864956,1924.535449,-76303.111601
213.827869,-1628.453072,-1924.535449,-78907.836294
213.830425,-296.082377,4145.153275,-79520.712692
213.832981,1184.329507,-1184.329507,-77988.521696
213.835536,-1924.535449,1480.411884,-77835.302597
213.838092,-3552.988522,592.164754,-79214.274493
213.840648,1036.288319,3404.947333,-78141.740796
213.843203,1776.494261,-296.082377,-78448.178995
213.845759,-296.082377,3552.988522,-80440.027290
213.848315,1480.411884,-2368.659014,-79214.274493
213.850870,-1480.411884,-8734.430116,-79827.150892
213.853426,-1628.453072,-9918.759623,-80286.808190
213.855982,1480.411884,-7402.059420,-78601.398095
213.858537,296.082377,-9770.718434,-77069.207099
213.861093,-1924.535449,-3849.070898,-78141.740796
213.863649,-1036.288319,-1036.288319,-77375.645298
213.866204,-592.164754,-1628.453072,-75996.673402
213.868760,-296.082377,-4737.318029,-77528.864398
213.871316,740.205942,-4589.276840,-78141.740796
213.873871,592.164754,-6957.935855,-77682.083497
213.876427,-4885.359217,-5625.565159,-79367.493593
213.878983,444.123565,-8142.265362,-79367.493593
213.881538,0.000000,-8586.388927,-76609.549800
213.884094,-740.205942,-3404.947333,-76762.768900
213.886650,-1480.411884,-3256.906145,-79061.055394
213.889205,1480.411884,-888.247130,-76456.330700
213.891761,296.082377,-2664.741391,-77069.207099
213.894317,-2220.617826,-2960.823768,-77222.426198
213.896872,1628.453072,-6957.935855,-77222.426198
213.899428,-2368.659014,-3849.070898,-76915.987999
213.901984,296.082377,-7550.100608,-82738.313784
213.904539,740.205942,-4589.276840,-80286.808190
213.907095,-1628.453072,-9622.677246,-79061.055394
213.909651,-1776.494261,-2368.659014,-79673.931792
213.912206,2220.617826,-4589.276840,-78601.398095
213.914762,-444.123565,-5921.647536,-78294.959896
213.917318,-2220.617826,-1628.453072,-79673.931792
213.919873,2072.576638,-7994.224174,-77528.864398
213.922445,-1924.535449,-7105.977043,-78907.836294
213.925016,-3552.988522,-5773.606348,-79214.274493
213.927588,-740.205942,-2812.782580,-79367.493593
213.930159,1628.453072,-8586.388927,-77835.302597
213.932730,-1480.411884,-2368.659014,-79520.712692
213.935302,1628.453072,2664.741391,-79827.150892
213.937873,592.164754,3552.988522,-78601.398095
213.940445,-2220.617826,10362.883188,-79520.712692
213.943016,148.041188,8734.430116,-78141.740796
213.945587,444.123565,3108.864956,-76303.111601
213.948159,0.000000,-2812.782580,-78294.959896
213.950730,-2812.782580,-592.164754,-77528.864398
213.953302,148.041188,-6809.894666,-77222.426198
213.955873,-888.247130,888.247130,-76762.768900
213.958444,1036.288319,2368.659014,-77528.864398
213.961016,148.041188,3849.070898,-76609.549800
213.963587,-1924.535449,2664.741391,-79827.150892
213.966158,-2368.659014,13027.624579,-78754.617194
213.968730,592.164754,-740.205942,-77375.645298
213.971301,444.123565,-296.082377,-78907.836294
213.973873,-444.123565,-4145.153275,-79214.274493
213.976444,444.123565,-4293.194464,-76303.111601
213.979015,-1036.288319,740.205942,-76303.111601
213.981587,-740.205942,1036.288319,-77682.083497
213.984158,1924.535449,2960.823768,-76456.330700
213.986730,-1184.329507,2368.659014,-74924.139704
213.989301,-1184.329507,5329.482782,-81512.560987
213.991872,296.082377,5773.606348,-79827.150892
213.994444,-2072.576638,-1924.535449,-80286.808190
213.997015,-1776.494261,2368.659014,-80746.465489
213.999587,1924.535449,-1332.370696,-79061.055394
214.002158,-592.164754,-444.123565,-79673.931792
214.004729,-592.164754,2812.782580,-79061.055394
214.007301,1776.494261,2812.782580,-78448.178995
214.009872,148.041188,-148.041188,-77988.521696
214.012443,-1480.411884,1184.329507,-79061.055394
214.015015,592.164754,4737.318029,-79367.493593
214.017586,444.123565,-1036.288319,-78907.836294
214.020158,-3701.029710,-5181.441594,-80899.684589
214.022729,740.205942,-7254.018232,-77988.521696
214.025312,740.205942,-14063.912898,-77835.302597
214.027895,-2664.741391,-5921.647536,-79214.274493
214.030477,1036.288319,-5181.441594,-79673.931792
214.033060,-296.082377,-4589.276840,-77069.207099
214.035643,-3552.988522,-1480.411884,-77375.645298
214.038226,0.000000,148.041188,-76149.892501
214.040808,-444.123565,-4589.276840,-76303.111601
214.043391,-1480.411884,-11399.171507,-78907.836294
214.045974,-740.205942,-5033.400406,-76915.987999
214.048557,296.082377,-11547.212695,-76762.768900
214.051139,-3552.988522,-3552.988522,-77528.864398
214.053722,1776.494261,-740.205942,-77988.521696
214.056305,444.123565,-7846.182985,-79980.369991
214.058888,1036.288319,-3404.947333,-79673.931792
214.061470,-1480.411884,3701.029710,-77528.864398
214.064053,1184.329507,-5921.647536,-77835.302597
214.066636,-1036.288319,-6809.894666,-78294.959896
214.069219,-2368.659014,-3701.029710,-76609.549800
214.071801,1924.535449,-9770.718434,-75077.358804
214.074384,-2220.617826,-9918.759623,-75230.577904
214.076967,296.082377,-5329.482782,-77222.426198
214.079550,-296.082377,-5181.441594,-78448.178995
214.082133,0.000000,-3108.864956,-80286.808190
214.084715,-2516.700203,-3552.988522,-80593.246390
214.087298,444.123565,-5033.400406,-79673.931792
214.089881,-1924.535449,-8586.388927,-80133.589091
214.092464,-444.123565,-1924.535449,-79367.493593
214.095046,1924.535449,-5033.400406,-78448.178995
214.097629,148.041188,-6217.729913,-78448.178995
214.100212,-2960.823768,-7105.977043,-77375.645298
214.102795,296.082377,1480.411884,-78754.617194
214.105377,-1036.288319,3404.947333,-79520.712692
214.107960,-3256.906145,6957.935855,-80133.589091
214.110543,0.000000,8586.388927,-79673.931792
214.113126,1184.329507,4293.194464,-78294.959896
214.115708,-3256.906145,5181.441594,-79827.150892
214.118291,2664.741391,0.000000,-78754.617194
214.120874,-444.123565,-5033.400406,-79367.493593
214.123457,-740.205942,-4293.194464,-77069.207099
214.126039,-1776.494261,3701.029710,-76762.768900
214.128630,2220.617826,592.164754,-75843.454302
214.131221,-3256.906145,3701.029710,-77835.302597
214.133811,-1924.535449,8882.471304,-78754.617194
214.136402,-1184.329507,4589.276840,-77069.207099
214.138992,-1332.370696,888.247130,-77682.083497
214.141583,740.205942,-8142.265362,-77682.083497
214.144173,1036.288319,888.247130,-77069.207099
214.146764,148.041188,-5181.441594,-77375.645298
214.149354,-3256.906145,2368.659014,-81206.122788
214.151945,1776.494261,4885.359217,-76915.987999
214.154535,-2812.782580,-2072.576638,-78754.617194
214.157126,-1184.329507,11399.171507,-76915.987999
214.159717,592.164754,-296.082377,-77682.083497
214.162307,-444.123565,2812.782580,-76915.987999
214.164898,-740.205942,-2220.617826,-77528.864398
214.167488,2516.700203,5477.523971,-77835.302597
214.170079,-888.247130,-3108.864956,-79214.274493
214.172669,0.000000,5625.565159,-82738.313784
214.175260,-888.247130,1924.535449,-79061.055394
214.177850,-1776.494261,2072.576638,-79520.712692
214.180441,-1924.535449,1184.329507,-80440.027290
214.183031,3108.864956,6069.688724,-77835.302597
214.185622,-888.247130,-3997.112087,-78754.617194
214.188212,-888.247130,-2812.782580,-78754.617194
214.190803,-148.041188,-9474.636058,-78907.836294
214.193394,148.041188,-10066.800811,-76456.330700
214.195984,-888.247130,-12287.418637,-78754.617194
214.198575,-1776.494261,-1480.411884,-78294.959896
214.201165,0.000000,-3701.029710,-76456.330700
214.203756,-444.123565,-1332.370696,-77222.426198
214.206346,444.123565,-2960.823768,-77835.302597
214.208937,1480.411884,-4737.318029,-75230.577904
214.211527,-148.041188,-9030.512492,-78754.617194
214.214118,-1628.453072,-5773.606348,-80593.246390
214.216708,148.041188,-8882.471304,-79520.712692
214.219299,-888.247130,-6365.771101,-79520.712692
214.221890,-2812.782580,0.000000,-81512.560987
214.224480,3108.864956,-1924.535449,-79061.055394
214.227071,-148.041188,-6069.688724,-78448.178995
214.229661,-1036.288319,1628.453072,-79061.055394
214.232257,1036.288319,-5921.647536,-77069.207099
214.234852,888.247130,-8290.306550,-76915.987999
214.237448,-2220.617826,-8438.347739,-79980.369991
214.240044,1776.494261,-5773.606348,-77682.083497
214.242639,-1036.288319,-9178.553681,-77835.302597
214.245235,-1628.453072,-2220.617826,-77835.302597
214.247831,1628.453072,-4885.359217,-78754.617194
214.250426,740.205942,-4293.194464,-79061.055394
214.253022,-1480.411884,-6513.812290,-80133.589091
214.255618,-1628.453072,-4737.318029,-76762.768900
214.258213,1184.329507,-3701.029710,-76915.987999
214.260809,-2368.659014,-6217.729913,-76456.330700
214.263405,-1184.329507,-5773.606348,-77375.645298
214.266000,-296.082377,-4737.318029,-74770.920605
214.268596,-2072.576638,-1332.370696,-76915.987999
214.271192,-740.205942,5033.400406,-77528.864398
214.273787,740.205942,8734.430116,-76303.111601
214.276383,-1628.453072,4885.359217,-78754.617194
214.278978,-444.123565,9030.512492,-78601.398095
214.281574,296.082377,-2664.741391,-76609.549800
214.284170,-888.247130,-2664.741391,-77682.083497
214.286765,-1184.329507,-3997.112087,-80133.589091
214.289361,1776.494261,-444.123565,-77835.302597
214.291957,-2072.576638,-1924.535449,-78294.959896
214.294552,1924.535449,5329.482782,-75537.016103
214.297148,1628.453072,6513.812290,-75230.577904
214.299744,-1332.370696,5773.606348,-78601.398095
214.302339,-2664.741391,2220.617826,-80133.589091
214.304935,2516.700203,4145.153275,-77375.645298
214.307531,-2072.576638,-8734.430116,-81359.341888
214.310126,-888.247130,3701.029710,-81818.999186
214.312722,148.041188,-2664.741391,-78601.398095
214.315317,296.082377,-740.205942,-80133.589091
214.317913,-740.205942,4737.318029,-79214.274493
214.320509,2072.576638,6513.812290,-78141.740796
214.323104,148.041188,7698.141797,-74311.263306
214.325700,-2812.782580,592.164754,-80133.589091
214.328296,-888.247130,4145.153275,-78754.617194
214.330891,592.164754,-1628.453072,-77835.302597
214.333487,-3404.947333,296.082377,-79980.369991
214.336084,1480.411884,3256.906145,-77682.083497
214.338681,1628.453072,0.000000,-80133.589091
214.341278,-2664.741391,4589.276840,-79214.274493
214.343875,1184.329507,3701.029710,-77528.864398
214.346472,296.082377,2664.741391,-76915.987999
214.349069,-1036.288319,-2960.823768,-78601.398095
214.351666,-1480.411884,-6365.771101,-77375.645298
214.354263,296.082377,-12139.377449,-75843.454302
214.356860,-2072.576638,-11991.336260,-76915.987999
214.359457,148.041188,-8882.471304,-78141.740796
214.362054,0.000000,-5773.606348,-76303.111601
214.364651,-1924.535449,-3997.112087,-76762.768900
214.367247,-1480.411884,2516.700203,-80286.808190
214.369844,1332.370696,-3108.864956,-77069.207099
214.372441,-2368.659014,-4737.318029,-78294.959896
214.375038,444.123565,-7402.059420,-79520.712692
214.377635,-296.082377,-10362.883188,-76456.330700
214.380232,-1332.370696,-7994.224174,-77069.207099
214.382829,-2072.576638,-4589.276840,-78294.959896
214.385426,2368.659014,-8290.306550,-76303.111601
214.388023,-592.164754,-296.082377,-75537.016103
214.390620,-1184.329507,-1332.370696,-80286.808190
214.393217,-592.164754,296.082377,-77682.083497
214.395814,-1924.535449,-7402.059420,-80899.684589
214.398411,-740.205942,-6365.771101,-82125.437386
214.401008,2664.741391,-11251.130318,-78448.178995
214.403605,-1924.535449,-9326.594869,-78141.740796
214.406202,-740.205942,-7994.224174,-79367.493593
214.408799,1924.535449,-2220.617826,-77222.426198
214.411396,296.082377,-3108.864956,-76915.987999
214.413993,-2072.576638,-5921.647536,-79520.712692
214.416590,0.000000,-3256.906145,-78907.836294
214.419187,-148.041188,-4737.318029,-78907.836294
214.421784,-3997.112087,-3552.988522,-79520.712692
214.424381,1184.329507,-4737.318029,-78907.836294
214.426978,1480.411884,-9474.636058,-77682.083497
214.429575,-2664.741391,-592.164754,-79673.931792
214.432171,1480.411884,3701.029710,-78601.398095
214.434768,888.247130,8586.388927,-75537.016103
214.437365,-888.247130,6809.894666,-77988.521696
214.439963,-444.123565,9918.759623,-77835.302597
214.442561,444.123565,1628.453072,-76303.111601
214.445159,-1924.535449,-2664.741391,-78448.178995
214.447756,-592.164754,-2812.782580,-77988.521696
214.450354,740.205942,-5477.523971,-77069.207099
214.452952,-740.205942,-1776.494261,-77375.645298
214.455550,0.000000,5477.523971,-78141.740796
214.458147,592.164754,6957.935855,-77682.083497
214.460745,-1036.288319,5329.482782,-77835.302597
214.463343,-888.247130,7846.182985,-79520.712692
214.465941,740.205942,-4885.359217,-78294.959896
214.468538,-1628.453072,-4293.194464,-76456.330700
214.471136,-296.082377,-5921.647536,-76609.549800
214.473734,1184.329507,-1332.370696,-75690.235202
214.476332,-2072.576638,148.041188,-76609.549800
214.478929,-2072.576638,5033.400406,-79520.712692
214.481527,148.041188,10807.006753,-79520.712692
214.484125,-3108.864956,4589.276840,-79827.150892
214.486723,740.205942,5033.400406,-81665.780087
214.489320,888.247130,-1184.329507,-78294.959896
214.491918,-592.164754,296.082377,-78907.836294
214.494516,-2516.700203,-444.123565,-79673.931792
214.497113,2220.617826,740.205942,-77682.083497
214.499711,-740.205942,-1332.370696,-78294.959896
214.502309,-4589.276840,2664.741391,-79980.369991
214.504907,-148.041188,5921.647536,-78754.617194
214.507504,888.247130,3108.864956,-77222.426198
214.510102,-2368.659014,-5033.400406,-80133.589091
214.512700,888.247130,-4885.359217,-78601.398095
214.515298,148.041188,-15100.201217,-79673.931792
214.517895,-2664.741391,-8290.306550,-78294.959896
214.520493,1628.453072,-9918.759623,-79061.055394
214.523091,1776.494261,-6217.729913,-76303.111601
214.525689,-2664.741391,296.082377,-76149.892501
214.528286,-888.247130,1184.329507,-76915.987999
214.530884,-296.082377,-3256.906145,-77222.426198
214.533482,-3256.906145,-6513.812290,-78448.178995
214.536080,2072.576638,-3701.029710,-75843.454302
214.538677,-1036.288319,-13767.830521,-75690.235202
214.541275,-2220.617826,-9326.594869,-77682.083497
214.543872,-1184.329507,4737.318029,-77682.083497
214.546469,148.041188,-2220.617826,-78141.740796
214.549067,-2220.617826,-7254.018232,-81052.903688
214.551664,-740.205942,-888.247130,-78754.617194
214.554261,-444.123565,-2072.576638,-75537.016103
214.556858,-1332.370696,-6513.812290,-77069.207099
214.559455,0.000000,-9918.759623,-78907.836294
214.562053,1628.453072,-13027.624579,-76609.549800
214.564650,-1480.411884,-6809.894666,-77528.864398
214.567247,-592.164754,-5625.565159,-80133.589091
214.569844,-148.041188,-740.205942,-79061.055394
214.572441,-1628.453072,-8142.265362,-80286.808190
214.575039,-2072.576638,-740.205942,-80593.246390
214.577636,2072.576638,-3849.070898,-78601.398095
214.580233,-1184.329507,-4737.318029,-79367.493593
214.582830,-740.205942,-6069.688724,-79980.369991
214.585427,2368.659014,-7994.224174,-76915.987999
214.588024,-888.247130,-2960.823768,-75537.016103
214.590622,-2960.823768,3552.988522,-79520.712692
214.593219,740.205942,11991.336260,-78601.398095
214.595816,592.164754,7698.141797,-79520.712692
214.598413,-2516.700203,8882.471304,-80286.808190
214.601010,0.000000,3849.070898,-78601.398095
214.603608,296.082377,-2812.782580,-79367.493593
214.606205,-2812.782580,-3997.112087,-80286.808190
214.608802,-148.041188,-1036.288319,-77682.083497
214.611399,1480.411884,-1332.370696,-76303.111601
214.613996,444.123565,3404.947333,-76762.768900
214.616593,-3108.864956,6661.853478,-77069.207099
214.619191,1332.370696,5181.441594,-78601.398095
214.621788,-1924.535449,5181.441594,-77528.864398
214.624385,-1036.288319,-2812.782580,-80746.465489
214.626982,888.247130,-444.123565,-78141.740796
214.629579,444.123565,-9474.636058,-78907.836294
214.632177,-1628.453072,-148.041188,-80133.589091
214.634774,1480.411884,5033.400406,-77682.083497
214.637371,-888.247130,5773.606348,-76609.549800
214.639968,-3997.112087,9622.677246,-79673.931792
214.642565,2220.617826,7402.059420,-79673.931792
214.645163,-1184.329507,2368.659014,-79520.712692
214.647760,-1480.411884,740.205942,-79673.931792
214.650356,1480.411884,296.082377,-77835.302597
214.652953,740.205942,-2812.782580,-79673.931792
214.655550,-1480.411884,-444.123565,-76609.549800
214.658146,-1332.370696,296.082377,-78294.959896
214.660743,-148.041188,6069.688724,-76456.330700
214.663339,-1480.411884,-1184.329507,-77988.521696
214.665936,-1036.288319,-148.041188,-76303.111601
214.668532,1332.370696,-8734.430116,-77222.426198
214.671129,-2220.617826,-13323.706956,-78141.740796
214.673725,148.041188,-10066.800811,-78448.178995
214.676322,1924.535449,-10510.924376,-77069.207099
214.678918,-888.247130,-7550.100608,-77682.083497
214.681515,-1036.288319,2664.741391,-79673.931792
214.684111,-592.164754,-3404.947333,-77528.864398
214.686708,0.000000,-3256.906145,-77375.645298
214.689304,-592.164754,-2812.782580,-77069.207099
214.691901,592.164754,-11991.336260,-77069.207099
214.694497,444.123565,-8882.471304,-76303.111601
214.697094,-1036.288319,-11399.171507,-77375.645298
214.699690,1184.329507,-592.164754,-78601.398095
214.702287,-2072.576638,-1036.288319,-79367.493593
214.704883,-1184.329507,-2516.700203,-80746.465489
214.707480,1628.453072,1924.535449,-77835.302597
214.710077,-1480.411884,-9326.594869,-79214.274493
214.712673,-1184.329507,-4737.318029,-80286.808190
214.715270,1184.329507,-14952.160028,-80286.808190
214.717866,148.041188,-8734.430116,-78141.740796
214.720463,-1184.329507,-8734.430116,-77682.083497
214.723059,1628.453072,-1036.288319,-76915.987999
214.725656,-1036.288319,-5625.565159,-76609.549800
214.728252,-1628.453072,-2516.700203,-80440.027290
214.730849,-148.041188,592.164754,-78294.959896
214.733445,740.205942,-3108.864956,-79367.493593
214.736042,-4589.276840,-3701.029710,-78754.617194
214.738638,2812.782580,-8882.471304,-77682.083497
214.741235,444.123565,-4441.235652,-78754.617194
214.743831,-2072.576638,-1480.411884,-75996.673402
214.746428,-1036.288319,11103.089130,-77835.302597
214.749024,1332.370696,8142.265362,-77528.864398
214.751619,-296.082377,9474.636058,-78294.959896
214.754213,-1332.370696,3552.988522,-76303.111601
214.756808,-444.123565,-740.205942,-76303.111601
214.759402,-1776.494261,-6513.812290,-79061.055394
214.761997,296.082377,-148.041188,-77682.083497
214.764591,-444.123565,-2220.617826,-76762.768900
214.767186,1184.329507,3108.864956,-77222.426198
214.769780,-1628.453072,4589.276840,-78907.836294
214.772374,296.082377,11843.295072,-77528.864398
214.774969,-592.164754,-296.082377,-79061.055394
214.777563,148.041188,-444.123565,-79520.712692
214.780158,740.205942,592.164754,-74617.701505
214.782752,-1480.411884,-5181.441594,-76303.111601
214.785347,-2072.576638,1332.370696,-78141.740796
214.787941,444.123565,6069.688724,-79061.055394
214.790536,740.205942,2220.617826,-80899.684589
214.793130,-1628.453072,9918.759623,-79827.150892
214.795724,1924.535449,5921.647536,-78141.740796
214.798319,-444.123565,5181.441594,-79061.055394
214.800913,-2072.576638,2220.617826,-82738.313784
214.803508,740.205942,2220.617826,-79061.055394
214.806102,-1184.329507,-4441.235652,-79827.150892
214.808697,-592.164754,-592.164754,-78907.836294
214.811291,444.123565,1776.494261,-76915.987999
214.813885,888.247130,3552.988522,-76762.768900
214.816480,-2516.700203,-2220.617826,-78294.959896
214.819074,740.205942,444.123565,-79061.055394
214.821669,-1332.370696,-8586.388927,-79367.493593
214.824263,-2960.823768,-9622.677246,-79520.712692
214.826858,-148.041188,-11843.295072,-79367.493593
214.829452,740.205942,-8882.471304,-78448.178995
214.832047,-1184.329507,-8586.388927,-75996.673402
214.834641,888.247130,-444.123565,-75843.454302
214.837235,592.164754,-1184.329507,-75843.454302
214.839830,-592.164754,-5033.400406,-78294.959896
214.842424,-148.041188,-3108.864956,-77069.207099
214.845019,-148.041188,-7994.224174,-76456.330700
214.847613,-1776.494261,-5477.523971,-77375.645298
214.850208,-2664.741391,-12139.377449,-79980.369991
214.852802,444.123565,-2812.782580,-80440.027290
214.855395,-296.082377,-6217.729913,-79061.055394
214.857987,296.082377,1776.494261,-79061.055394
214.860580,888.247130,-5329.482782,-75843.454302
214.863172,-740.205942,-7698.141797,-79673.931792
214.865765,444.123565,-7254.018232,-80440.027290
214.868357,-296.082377,-10658.965565,-77528.864398
214.870950,-296.082377,-10066.800811,-77682.083497
214.873542,-1480.411884,-7105.977043,-79061.055394
214.876135,1480.411884,-4145.153275,-77988.521696
214.878728,-592.164754,-4293.194464,-78754.617194
214.881320,-592.164754,1332.370696,-80899.684589
214.883913,296.082377,444.123565,-78294.959896
214.886505,888.247130,-6217.729913,-79673.931792
214.889098,-1480.411884,-5329.482782,-79520.712692
214.891690,2072.576638,-1480.411884,-78294.959896
214.894283,-3404.947333,-3552.988522,-79520.712692
214.896875,-2220.617826,6513.812290,-78448.178995
214.899468,-740.205942,8438.347739,-78754.617194
214.902060,2220.617826,8882.471304,-75383.797003
214.904653,-2220.617826,592.164754,-77528.864398
214.907246,1332.370696,3997.112087,-76609.549800
214.909838,-2220.617826,-5625.565159,-77682.083497
214.912431,-1628.453072,-1628.453072,-79214.274493
214.915023,-1184.329507,-592.164754,-77682.083497
214.917616,740.205942,1776.494261,-77682.083497
214.920208,-1776.494261,1924.535449,-78294.959896
214.922801,1480.411884,13323.706956,-77835.302597
214.925393,444.123565,-296.082377,-76915.987999
214.927986,296.082377,-1924.535449,-77528.864398
214.930578,-592.164754,2368.659014,-76456.330700
214.933171,1628.453072,-8882.471304,-78141.740796
214.935764,-1776.494261,4737.318029,-75537.016103
214.938356,-148.041188,148.041188,-77528.864398
214.940949,1184.329507,10066.800811,-78294.959896
214.943541,-2664.741391,2368.659014,-79061.055394
214.946134,-740.205942,8438.347739,-79214.274493
214.948726,2516.700203,2368.659014,-77988.521696
214.951319,-592.164754,1184.329507,-79980.369991
214.953911,-2072.576638,0.000000,-78294.959896
214.956504,2812.782580,-3256.906145,-78448.178995
214.959095,-1480.411884,-4293.194464,-78141.740796
214.961686,296.082377,4737.318029,-79367.493593
214.964277,740.205942,1776.494261,-78448.178995
214.966867,-740.205942,-5921.647536,-78754.617194
214.969458,-2220.617826,-4589.276840,-80133.589091
214.972049,1480.411884,-8438.347739,-79214.274493
214.974640,1036.288319,-11547.212695,-78294.959896
214.977231,-2072.576638,-6957.935855,-79520.712692
214.979822,296.082377,-5477.523971,-77988.521696
214.982413,888.247130,-3701.029710,-78294.959896
214.985003,-1184.329507,-5921.647536,-77528.864398
214.987594,-3701.029710,444.123565,-77222.426198
214.990185,444.123565,-8586.388927,-77375.645298
214.992776,-3108.864956,-4589.276840,-77682.083497
214.995367,740.205942,-5329.482782,-77222.426198
214.997958,-148.041188,-12583.501014,-76609.549800
215.000549,-1332.370696,-1628.453072,-76915.987999
215.003139,-296.082377,-4589.276840,-78448.178995
215.005730,-148.041188,444.123565,-75690.235202
215.008321,-1776.494261,-3256.906145,-77375.645298
215.010912,-444.123565,-8438.347739,-78907.836294
215.013503,296.082377,-6217.729913,-75843.454302
215.016094,-740.205942,-15100.201217,-79520.712692
215.018685,888.247130,-6217.729913,-77682.083497
215.021276,-888.247130,-12879.583391,-76609.549800
215.023866,-148.041188,-6217.729913,-75996.673402
215.026457,-1332.370696,-3552.988522,-77222.426198
215.029048,1628.453072,2220.617826,-79827.150892
215.031639,-2516.700203,-2812.782580,-79061.055394
215.034230,-444.123565,-2812.782580,-81052.903688
215.036821,-148.041188,-6809.894666,-78448.178995
215.039412,-592.164754,-3256.906145,-78907.836294
215.042000,-3256.906145,444.123565,-77682.083497
215.044589,-296.082377,9474.636058,-77528.864398
215.047177,296.082377,8290.306550,-76456.330700
215.049766,-444.123565,7254.018232,-77682.083497
215.052354,296.082377,3997.112087,-77682.083497
215.054943,2368.659014,-2072.576638,-77375.645298
215.057531,-2072.576638,-3997.112087,-80593.246390
215.060120,-148.041188,-2072.576638,-79214.274493
215.062708,444.123565,-1628.453072,-75996.673402
215.065297,-296.082377,2220.617826,-76762.768900
215.067885,-592.164754,6365.771101,-79061.055394
215.070474,1184.329507,4589.276840,-76762.768900
215.073063,-1924.535449,1332.370696,-75843.454302
215.075651,-740.205942,2664.741391,-80133.589091
215.078240,-444.123565,-4293.194464,-79214.274493
215.080828,-1628.453072,592.164754,-79673.931792
215.083417,-592.164754,2516.700203,-81052.903688
215.086005,296.082377,6809.894666,-78601.398095
215.088594,-1628.453072,5329.482782,-79367.493593
215.091182,-1480.411884,9770.718434,-80440.027290
215.093771,2812.782580,2960.823768,-78907.836294
215.096359,-592.164754,1184.329507,-77222.426198
215.098948,-2220.617826,-4737.318029,-79367.493593
215.101537,444.123565,1480.411884,-77069.207099
215.104125,-1184.329507,-5033.400406,-77988.521696
215.106714,-1628.453072,2368.659014,-80133.589091
215.109302,888.247130,444.123565,-80286.808190
215.111891,-1036.288319,-1924.535449,-78141.740796
215.114479,-3701.029710,-3997.112087,-80133.589091
215.117068,1480.411884,-6069.688724,-78907.836294
215.119656,1332.370696,-12139.377449,-76915.987999
215.122245,-1184.329507,-10658.965565,-75537.016103
215.124833,-1776.494261,-6365.771101,-77069.207099
215.127422,888.247130,-2664.741391,-75537.016103
215.130010,-2220.617826,-5329.482782,-77222.426198
215.132599,-1332.370696,1184.329507,-77682.083497
215.135188,148.041188,-8142.265362,-76762.768900
215.137776,-1776.494261,-5329.482782,-77835.302597
215.140365,-2072.576638,-2664.741391,-77222.426198
215.142953,1924.535449,-10955.047942,-80133.589091
215.145539,-888.247130,-5033.400406,-79520.712692
215.148126,-1184.329507,3701.029710,-78141.740796
215.150712,592.164754,-10510.924376,-77528.864398
215.153298,-740.205942,-4885.359217,-77682.083497
215.155885,-1480.411884,-6365.771101,-80286.808190
215.158471,-444.123565,-5921.647536,-77222.426198
215.161057,-2072.576638,-11547.212695,-76762.768900
215.163644,-592.164754,-8734.430116,-80593.246390
215.166230,1332.370696,-7550.100608,-77988.521696
215.168816,296.082377,-7402.059420,-78141.740796
215.171402,-1036.288319,1628.453072,-79673.931792
215.173989,1628.453072,592.164754,-78907.836294
215.176575,444.123565,-3108.864956,-79214.274493
215.179161,-1776.494261,-3701.029710,-80286.808190
215.181748,-888.247130,-2072.576638,-78448.178995
215.184334,-1036.288319,-2960.823768,-79214.274493
215.186920,-1332.370696,4885.359217,-78601.398095
215.189507,-444.123565,7402.059420,-77375.645298
215.192093,444.123565,7550.100608,-75537.016103
215.194679,-444.123565,2368.659014,-76609.549800
215.197265,148.041188,4589.276840,-76609.549800
215.199852,-1184.329507,-4589.276840,-78754.617194
215.202438,-3108.864956,740.205942,-79673.931792
215.205024,1480.411884,-888.247130,-78907.836294
215.207611,1776.494261,-1184.329507,-77528.864398
215.210197,-2368.659014,-148.041188,-76456.330700
215.212783,-444.123565,11843.295072,-77222.426198
215.215370,-592.164754,1184.329507,-76762.768900
215.217956,-1628.453072,-7402.059420,-77835.302597
215.220542,444.123565,2072.576638,-76609.549800
215.223128,888.247130,-1332.370696,-76303.111601
215.225715,-2368.659014,1184.329507,-77682.083497
215.228301,-2664.741391,7698.141797,-80286.808190
215.230887,1480.411884,5773.606348,-80593.246390
215.233474,-1480.411884,6661.853478,-79520.712692
215.236060,0.000000,7402.059420,-79520.712692
215.238646,1480.411884,3552.988522,-78141.740796
215.241233,296.082377,-3997.112087,-78601.398095
215.243819,-1628.453072,1184.329507,-80133.589091
215.246405,1776.494261,-5329.482782,-77528.864398
215.248941,-592.164754,-592.164754,-77069.207099
215.251478,-1924.535449,-592.164754,-78601.398095
215.254014,-888.247130,-1184.329507,-77528.864398
215.256550,1036.288319,-7550.100608,-77375.645298
215.259086,-3404.947333,-7698.141797,-79520.712692
215.261622,1480.411884,-8438.347739,-80133.589091
215.264159,592.164754,-8882.471304,-78754.617194
215.266695,-2220.617826,-7402.059420,-79827.150892
215.269231,592.164754,-1628.453072,-77375.645298
215.271767,0.000000,-4737.318029,-77988.521696
215.274304,-592.164754,-3404.947333,-77069.207099
215.276840,-2516.700203,-5625.565159,-77835.302597
215.279376,1036.288319,-4441.235652,-76762.768900
215.281912,-2664.741391,-5477.523971,-76456.330700
215.284448,-1924.535449,-6069.688724,-77682.083497
215.286985,0.000000,-10807.006753,-77835.302597
215.289521,-1184.329507,592.164754,-76303.111601
215.292057,148.041188,-888.247130,-76762.768900
215.294593,1036.288319,-4737.318029,-79367.493593
215.297130,-444.123565,-10510.924376,-80286.808190
215.299666,-296.082377,-6809.894666,-78754.617194
215.302202,148.041188,-10658.965565,-78141.740796
215.304738,-148.041188,-11695.253884,-78754.617194
215.307274,-2516.700203,-6069.688724,-78601.398095
215.309811,444.123565,-5181.441594,-76456.330700
215.312347,-1776.494261,-2664.741391,-77222.426198
215.314883,444.123565,1628.453072,-77222.426198
215.317419,888.247130,-2664.741391,-78601.398095
215.319956,1184.329507,-6957.935855,-78448.178995
215.322492,-1776.494261,2220.617826,-79367.493593
215.325028,740.205942,2664.741391,-79520.712692
215.327564,-2072.576638,6661.853478,-80440.027290
215.330100,-740.205942,9622.677246,-81512.560987
215.332637,1036.288319,6513.812290,-79061.055394
215.335173,-1184.329507,888.247130,-78601.398095
215.337709,-444.123565,-1480.411884,-77375.645298
215.340245,-1036.288319,-148.041188,-78754.617194
215.342782,-296.082377,-3256.906145,-77222.426198
215.345318,-2516.700203,1628.453072,-78448.178995
215.347854,1776.494261,4885.359217,-77682.083497
215.350399,-1184.329507,9030.512492,-76762.768900
215.352944,-2960.823768,2664.741391,-80440.027290
215.355489,148.041188,740.205942,-79673.931792
215.358034,592.164754,444.123565,-76762.768900
215.360579,-2664.741391,-888.247130,-76915.987999
215.363124,-888.247130,2220.617826,-78754.617194
215.365669,444.123565,2516.700203,-76456.330700
215.368214,-148.041188,2368.659014,-76149.892501
215.370759,-1036.288319,10362.883188,-76456.330700
215.373304,2220.617826,7846.182985,-76762.768900
215.375849,-3256.906145,3256.906145,-78141.740796
215.378394,-444.123565,1184.329507,-77528.864398
215.380939,1480.411884,-4293.194464,-80593.246390
215.383484,-2664.741391,-4885.359217,-78448.178995
215.386029,444.123565,1924.535449,-79980.369991
215.388574,3256.906145,296.082377,-78294.959896
215.391119,-1036.288319,-7994.224174,-79980.369991
215.393664,-888.247130,-3256.906145,-78907.836294
215.396209,0.000000,-9918.759623,-77069.207099
215.398754,296.082377,-10510.924376,-78141.740796
215.401299,-1628.453072,-5773.606348,-79214.274493
215.403844,1036.288319,-5773.606348,-78754.617194
215.406389,148.041188,-2812.782580,-78141.740796
215.408934,-2812.782580,-6513.812290,-80133.589091
215.411479,888.247130,-444.123565,-79673.931792
215.414024,2368.659014,-10214.842000,-78754.617194
215.416569,-3997.112087,-6809.894666,-79980.369991
215.419114,2220.617826,-1628.453072,-78448.178995
215.421659,-1776.494261,-6217.729913,-78754.617194
215.424204,-592.164754,-8586.388927,-79673.931792
215.426749,-2072.576638,592.164754,-77528.864398
215.429294,740.205942,-6069.688724,-74004.825107
215.431839,-2664.741391,-9622.677246,-76456.330700
215.434384,-296.082377,-5625.565159,-78448.178995
215.436929,592.164754,-11103.089130,-77835.302597
215.439474,-1480.411884,-11843.295072,-77835.302597
215.442019,2072.576638,-7846.182985,-75537.016103
215.444564,-1776.494261,-9178.553681,-77222.426198
215.447109,592.164754,-3256.906145,-77988.521696
215.449654,-592.164754,1184.329507,-78754.617194
215.452206,444.123565,-4441.235652,-77988.521696
215.454757,-444.123565,-5477.523971,-77222.426198
215.457308,-1184.329507,296.082377,-77222.426198
215.459859,1924.535449,3108.864956,-78907.836294
215.462411,888.247130,5477.523971,-79214.274493
215.464962,-1924.535449,6513.812290,-80133.589091
215.467513,2072.576638,10214.842000,-77528.864398
215.470064,1184.329507,2072.576638,-76303.111601
215.472616,-3108.864956,148.041188,-77835.302597
215.475167,-1924.535449,-1628.453072,-77988.521696
215.477718,296.082377,-2516.700203,-76915.987999
215.480269,-2516.700203,-1036.288319,-78294.959896
215.482820,1184.329507,3552.988522,-77069.207099
215.485372,-1480.411884,8142.265362,-75996.673402
215.487923,-1776.494261,2516.700203,-78754.617194
215.490474,-1036.288319,0.000000,-77988.521696
215.493025,2220.617826,-1036.288319,-77222.426198
215.495577,-2368.659014,0.000000,-77988.521696
215.498128,-740.205942,3404.947333,-80746.465489
215.500679,444.123565,1036.288319,-77682.083497
215.503230,-740.205942,3108.864956,-76762.768900
215.505782,-1776.494261,10066.800811,-77835.302597
215.508333,888.247130,6365.771101,-77375.645298
215.510884,-2368.659014,4441.235652,-77528.864398
215.513435,-2516.700203,1480.411884,-79980.369991
215.515987,296.082377,-1776.494261,-78448.178995
215.518538,-2812.782580,-5625.565159,-77988.521696
215.521089,-740.205942,1776.494261,-81512.560987
215.523640,1480.411884,-3256.906145,-79520.712692
215.526192,-1776.494261,-5921.647536,-80133.589091
215.528743,-1036.288319,-5625.565159,-79520.712692
215.531294,2812.782580,-8290.306550,-77682.083497
215.533845,1332.370696,-11103.089130,-77682.083497
215.536397,-1776.494261,-6069.688724,-77835.302597
215.538948,148.041188,-2812.782580,-77528.864398
215.541499,888.247130,-3404.947333,-77375.645298
215.544050,-5329.482782,-5773.606348,-79367.493593
215.546602,2220.617826,-1480.411884,-79367.493593
215.549153,-1036.288319,-6661.853478,-78141.740796
215.551704,-3256.906145,-4441.235652,-79980.369991
215.554261,-1036.288319,-5329.482782,-77682.083497
215.556817,1332.370696,-5181.441594,-77069.207099
215.559374,-592.164754,-444.123565,-77835.302597
215.561931,0.000000,-7254.018232,-77835.302597
215.564487,-296.082377,-5773.606348,-76303.111601
215.567044,-1184.329507,-8734.430116,-77835.302597
215.569600,-1628.453072,-6957.935855,-78448.178995
215.572157,444.123565,-11547.212695,-76149.892501
215.574714,-148.041188,-12731.542202,-77528.864398
215.577270,-148.041188,-6957.935855,-80286.808190
215.579827,592.164754,-2516.700203,-77222.426198
215.582383,-888.247130,-2368.659014,-78601.398095
215.584940,-148.041188,2368.659014,-79061.055394
215.587496,1628.453072,-5625.565159,-77069.207099
215.590053,-2516.700203,-4293.194464,-77069.207099
215.592610,-296.082377,1036.288319,-79520.712692
215.595166,-296.082377,3256.906145,-75230.577904
215.597723,1924.535449,3701.029710,-79520.712692
215.600279,-2368.659014,9918.759623,-79673.931792
215.602836,1332.370696,5921.647536,-78448.178995
215.605393,-148.041188,296.082377,-79673.931792
215.607949,-740.205942,296.082377,-80133.589091
215.610506,0.000000,-148.041188,-79214.274493
215.613062,0.000000,-2072.576638,-79673.931792
215.615619,-2368.659014,1036.288319,-81512.560987
215.618176,1628.453072,6809.894666,-78907.836294
215.620732,-1776.494261,-2812.782580,-78601.398095
215.623289,444.123565,1480.411884,-79061.055394
215.625845,1776.494261,10807.006753,-75383.797003
215.628402,444.123565,-7994.224174,-77835.302597
215.630958,-1776.494261,2960.823768,-78601.398095
215.633515,592.164754,2664.741391,-77682.083497
215.636072,-1036.288319,8882.471304,-77835.302597
215.638628,-3552.988522,2516.700203,-79980.369991
215.641185,1480.411884,12879.583391,-78141.740796
215.643741,444.123565,1480.411884,-76456.330700
215.646298,-296.082377,1184.329507,-76609.549800
215.648855,-1184.329507,-1924.535449,-77222.426198
215.651411,1036.288319,-1332.370696,-75690.235202
215.653968,-2516.700203,-1184.329507,-77528.864398
215.656534,444.123565,-1480.411884,-77069.207099
215.659094,-444.123565,-7698.141797,-76762.768900
215.661655,-1776.494261,-9474.636058,-78754.617194
215.664216,-2220.617826,-7254.018232,-79520.712692
215.666777,3108.864956,-9030.512492,-79061.055394
215.669338,-2220.617826,-6069.688724,-79061.055394
215.671899,0.000000,-6365.771101,-79980.369991
215.674459,444.123565,-1036.288319,-75690.235202
215.677020,-1036.288319,-7698.141797,-77988.521696
215.679581,-1332.370696,592.164754,-79061.055394
215.682142,296.082377,-11103.089130,-79214.274493
215.684703,-296.082377,-5921.647536,-77835.302597
215.687264,-3256.906145,-2368.659014,-77835.302597
215.689824,-888.247130,-4441.235652,-79367.493593
215.692385,-444.123565,-888.247130,-78448.178995
215.694946,-2664.741391,-5773.606348,-80133.589091
215.697507,1332.370696,-1628.453072,-78601.398095
215.700068,-1332.370696,-13027.624579,-78448.178995
215.702629,-2072.576638,-4293.194464,-80133.589091
215.705189,888.247130,-13915.871710,-81206.122788
215.707750,1036.288319,-10510.924376,-75383.797003
215.710311,-1332.370696,-7994.224174,-78141.740796
215.712872,-1184.329507,0.000000,-77835.302597
215.715433,1776.494261,-1480.411884,-75843.454302
215.717994,-148.041188,-3256.906145,-77988.521696
215.720555,1036.288319,-1480.411884,-77222.426198
215.723115,1036.288319,-444.123565,-76303.111601
215.725676,-4293.194464,1776.494261,-79367.493593
215.728237,2220.617826,7105.977043,-78907.836294
215.730798,-148.041188,5477.523971,-77835.302597
215.733359,-1036.288319,5329.482782,-77069.207099
215.735920,-1480.411884,3997.112087,-78141.740796
215.738480,1332.370696,-296.082377,-75843.454302
215.741041,-2368.659014,-3404.947333,-77835.302597
215.743602,444.123565,592.164754,-77069.207099
215.746163,888.247130,2368.659014,-75843.454302
215.748724,-1184.329507,-888.247130,-77069.207099
215.751285,-1036.288319,-2368.659014,-83044.751983
215.753845,592.164754,7105.977043,-78601.398095
215.756406,-1036.288319,-4441.235652,-78448.178995
215.758970,-1924.535449,8290.306550,-78601.398095
215.761533,1924.535449,1332.370696,-78601.398095
215.764096,444.123565,444.123565,-78141.740796
215.766660,-1776.494261,3849.070898,-79367.493593
215.769223,0.000000,1184.329507,-78294.959896
215.771786,-1184.329507,7698.141797,-77835.302597
215.774350,-3997.112087,5773.606348,-78907.836294
215.776913,1628.453072,5625.565159,-78448.178995
215.779476,0.000000,-2960.823768,-79061.055394
215.782040,-3404.947333,-2220.617826,-80286.808190
215.784603,1036.288319,1776.494261,-78601.398095
215.787166,1036.288319,-3701.029710,-77682.083497
215.789730,-2220.617826,-5477.523971,-79827.150892
215.792293,2812.782580,-6069.688724,-78754.617194
215.794856,444.123565,-8438.347739,-75996.673402
215.797420,-1628.453072,-10362.883188,-77375.645298
215.799983,-1184.329507,-3849.070898,-76915.987999
215.802546,1184.329507,-7994.224174,-76609.549800
215.805110,-888.247130,-2516.700203,-76609.549800
215.807673,-1036.288319,-4589.276840,-77222.426198
215.810237,-1480.411884,-5477.523971,-74770.920605
215.812800,-1036.288319,-8438.347739,-78907.836294
215.815363,-148.041188,-6809.894666,-77375.645298
215.817927,592.164754,-2368.659014,-76456.330700
215.820490,-2072.576638,-3849.070898,-77988.521696
215.823053,-740.205942,-888.247130,-78907.836294
215.825617,444.123565,-8142.265362,-77069.207099
215.828180,-444.123565,-5921.647536,-76762.768900
215.830743,-148.041188,-8586.388927,-77069.207099
215.833307,1480.411884,-11103.089130,-76303.111601
215.835870,-1184.329507,-15988.448347,-76303.111601
215.838433,-1036.288319,-8142.265362,-80440.027290
215.840997,592.164754,-3256.906145,-79214.274493
215.843560,-1776.494261,-2516.700203,-79827.150892
215.846123,-888.247130,1924.535449,-81512.560987
215.848687,2516.700203,-3108.864956,-79520.712692
215.851250,-592.164754,-5181.441594,-78754.617194
215.853813,-1184.329507,2812.782580,-78907.836294
215.856377,0.000000,1480.411884,-78294.959896
215.858940,592.164754,4589.276840,-78294.959896
215.861506,-1628.453072,9770.718434,-78448.178995
215.864072,740.205942,7254.018232,-77835.302597
215.866637,-888.247130,2368.659014,-76915.987999
215.869203,-4737.318029,-2220.617826,-80286.808190
215.871769,740.205942,1924.535449,-80286.808190
215.874335,-296.082377,-1480.411884,-79061.055394
215.876901,-1332.370696,296.082377,-76303.111601
215.879466,-740.205942,-592.164754,-77682.083497
215.882032,1036.288319,3256.906145,-79520.712692
215.884598,-444.123565,7402.059420,-77835.302597
215.887164,-1036.288319,-1184.329507,-81206.122788
215.889730,296.082377,2220.617826,-81206.122788
215.892295,-444.123565,-1184.329507,-80899.684589
215.894861,-1332.370696,6513.812290,-79061.055394
215.897427,740.205942,5033.400406,-78601.398095
215.899993,-888.247130,5625.565159,-78754.617194
215.902559,-740.205942,9918.759623,-77222.426198
215.905124,888.247130,3256.906145,-78448.178995
215.907690,-148.041188,1332.370696,-77222.426198
215.910256,-2664.741391,-3256.906145,-78754.617194
215.912822,296.082377,2368.659014,-77375.645298
215.915388,1184.329507,-5921.647536,-77988.521696
215.917953,-3256.906145,-5181.441594,-79980.369991
215.920519,1776.494261,-7994.224174,-79980.369991
215.923085,-148.041188,-9622.677246,-78907.836294
215.925651,-1184.329507,-11991.336260,-77069.207099
215.928217,444.123565,-2812.782580,-76609.549800
215.930782,-148.041188,-7846.182985,-76456.330700
215.933348,-1480.411884,-1776.494261,-75996.673402
215.935914,-2516.700203,-3997.112087,-77222.426198
215.938480,740.205942,-3404.947333,-76456.330700
215.941046,-1628.453072,-9918.759623,-77222.426198
215.943611,-592.164754,-7550.100608,-77682.083497
215.946177,-592.164754,-10658.965565,-76303.111601
215.948743,592.164754,3849.070898,-76303.111601
215.951309,-2072.576638,-5329.482782,-78448.178995
215.953875,-592.164754,-4145.153275,-80593.246390
215.956440,-1480.411884,-8142.265362,-78294.959896
215.959006,-444.123565,-7105.977043,-79673.931792
215.961572,-1184.329507,-12583.501014,-76762.768900
215.964098,148.041188,-14804.118840,-79673.931792
215.966623,-2072.576638,-9178.553681,-77375.645298
215.969149,1628.453072,-2812.782580,-80593.246390
215.971674,-444.123565,-2516.700203,-79520.712692
215.974200,-1332.370696,1332.370696,-80133.589091
215.976726,1184.329507,-2368.659014,-78907.836294
215.979251,-740.205942,-1332.370696,-78448.178995
215.981777,-1924.535449,2664.741391,-82431.875585
215.984302,1184.329507,4885.359217,-79061.055394
215.986828,-1036.288319,4145.153275,-80286.808190
215.989354,-592.164754,9770.718434,-77988.521696
215.991879,444.123565,6365.771101,-76915.987999
215.994405,148.041188,-148.041188,-76149.892501
215.996930,-592.164754,-444.123565,-77682.083497
215.999456,888.247130,2072.576638,-79520.712692
216.001982,-888.247130,-3256.906145,-77682.083497
216.004507,-1924.535449,1184.329507,-78448.178995
216.007033,888.247130,10214.842000,-78141.740796
216.009558,0.000000,-1332.370696,-79520.712692
216.012084,-2220.617826,-740.205942,-76456.330700
216.014610,1036.288319,4441.235652,-77682.083497
216.017135,1776.494261,-2368.659014,-76303.111601
216.019661,-888.247130,1332.370696,-76915.987999
216.022186,-888.247130,4589.276840,-76609.549800
216.024712,444.123565,7698.141797,-75996.673402
216.027238,-1776.494261,4441.235652,-78448.178995
216.029763,-1776.494261,9326.594869,-77222.426198
216.032289,444.123565,-1036.288319,-77069.207099
216.034814,-740.205942,-1924.535449,-78141.740796
216.037340,-740.205942,-444.123565,-78754.617194
216.039866,1628.453072,-1628.453072,-76609.549800
216.042391,-444.123565,-9178.553681,-78141.740796
216.044917,-444.123565,-3552.988522,-78601.398095
216.047442,296.082377,-12139.377449,-77988.521696
216.049968,-1776.494261,-9622.677246,-77835.302597
216.052493,-740.205942,-8734.430116,-79520.712692
216.055019,1480.411884,-2812.782580,-79061.055394
216.057545,444.123565,-4885.359217,-78601.398095
216.060070,-3108.864956,-1184.329507,-79673.931792
216.062596,296.082377,-3404.947333,-79061.055394
216.065132,444.123565,-8438.347739,-78754.617194
216.067667,-2220.617826,-2220.617826,-80133.589091
216.070203,740.205942,-9178.553681,-81512.560987
216.072739,-888.247130,-8290.306550,-78907.836294
216.075275,-740.205942,-2072.576638,-79520.712692
216.077810,-444.123565,-592.164754,-74770.920605
216.080346,-740.205942,-6513.812290,-74770.920605
216.082882,-1776.494261,-9030.512492,-78601.398095
216.085418,296.082377,-9622.677246,-78448.178995
216.087953,-148.041188,-13767.830521,-76609.549800
216.090489,-1628.453072,-11399.171507,-76609.549800
216.093025,740.205942,-1332.370696,-77835.302597
216.095561,-1036.288319,-3849.070898,-78601.398095
216.098097,-740.205942,-3108.864956,-79673.931792
216.100632,296.082377,-1628.453072,-78448.178995
216.103168,-888.247130,-740.205942,-76609.549800
216.105704,-2072.576638,-1184.329507,-77375.645298
216.108240,-296.082377,6217.729913,-76149.892501
216.110775,1036.288319,5181.441594,-76303.111601
216.113311,-1628.453072,7105.977043,-76149.892501
216.115847,-1776.494261,5181.441594,-76456.330700
216.118383,-1036.288319,444.123565,-75230.577904
216.120918,-740.205942,-3404.947333,-81512.560987
216.123454,-1924.535449,-148.041188,-81206.122788
216.125990,1480.411884,3256.906145,-79980.369991
216.128526,-148.041188,740.205942,-78907.836294
216.131061,-1480.411884,6365.771101,-78907.836294
216.133597,1776.494261,2220.617826,-77222.426198
216.136133,-740.205942,2516.700203,-77988.521696
216.138669,-1184.329507,592.164754,-80133.589091
216.141205,296.082377,3849.070898,-79673.931792
216.143740,-740.205942,1924.535449,-78754.617194
216.146276,-2516.700203,5477.523971,-78907.836294
216.148812,444.123565,9474.636058,-79061.055394
216.151348,148.041188,6661.853478,-78448.178995
216.153883,-1776.494261,7550.100608,-81206.122788
216.156419,888.247130,2516.700203,-78754.617194
216.158955,148.041188,-2368.659014,-78907.836294
216.161491,-1036.288319,148.041188,-79214.274493
216.164026,-2072.576638,-2368.659014,-77682.083497
216.166571,-148.041188,-9030.512492,-77222.426198
216.169116,-444.123565,-8142.265362,-78294.959896
216.171660,-1628.453072,-8438.347739,-77835.302597
216.174205,-888.247130,-8586.388927,-75843.454302
216.176750,-740.205942,-8438.347739,-78294.959896
216.179294,1332.370696,-1036.288319,-76456.330700
216.181839,-888.247130,-4441.235652,-77222.426198
216.184383,-2960.823768,-1776.494261,-78294.959896
216.186928,-1332.370696,-444.123565,-80133.589091
216.189473,444.123565,-8142.265362,-77988.521696
216.192017,-2220.617826,-14656.077652,-78601.398095
216.194562,148.041188,-888.247130,-76456.330700
216.197106,-444.123565,-7105.977043,-77375.645298
216.199651,-1184.329507,-4737.318029,-78294.959896
216.202196,-1036.288319,-1628.453072,-74924.139704
216.204740,296.082377,-8882.471304,-74311.263306
216.207285,-2664.741391,-9178.553681,-79520.712692
216.209830,-148.041188,-12435.459826,-82125.437386
216.212374,444.123565,-9622.677246,-79367.493593
216.214919,-1628.453072,-11991.336260,-80746.465489
216.217463,-296.082377,296.082377,-81206.122788
216.220008,1776.494261,-3108.864956,-78907.836294
216.222553,-444.123565,-2812.782580,-78294.959896
216.225097,0.000000,-1628.453072,-77988.521696
216.227642,1924.535449,6809.894666,-77375.645298
216.230187,-2220.617826,3552.988522,-76762.768900
216.232731,-3108.864956,7254.018232,-79673.931792
216.235276,740.205942,9030.512492,-78448.178995
216.237820,592.164754,3701.029710,-79673.931792
216.240365,-3997.112087,1036.288319,-79520.712692
216.242910,1628.453072,0.000000,-78907.836294
216.245454,444.123565,-1036.288319,-79061.055394
216.247999,148.041188,4145.153275,-80593.246390
216.250543,-592.164754,8438.347739,-77528.864398
216.253088,0.000000,-3256.906145,-77222.426198
216.255633,-1036.288319,4589.276840,-77682.083497
216.258177,-1776.494261,-444.123565,-76762.768900
216.260722,-1480.411884,3256.906145,-75690.235202
216.263267,-2072.576638,2368.659014,-78141.740796
216.265811,-444.123565,5329.482782,-77682.083497
216.268362,1480.411884,5181.441594,-78448.178995
216.270913,-1332.370696,1776.494261,-78141.740796
216.273464,888.247130,8438.347739,-77835.302597
216.276015,888.247130,3701.029710,-77222.426198
216.278565,-1332.370696,2960.823768,-78907.836294
216.281116,-740.205942,296.082377,-79367.493593
216.283667,592.164754,-1036.288319,-75690.235202
216.286218,-888.247130,-6069.688724,-76149.892501
216.288769,-1776.494261,-6513.812290,-77528.864398
216.291320,2516.700203,-8290.306550,-79061.055394
216.293871,0.000000,-10658.965565,-78601.398095
216.296422,-2516.700203,-11843.295072,-77375.645298
216.298972,-592.164754,-2812.782580,-77069.207099
216.301523,148.041188,-5181.441594,-76609.549800
216.304074,-1480.411884,-2220.617826,-77835.302597
216.306625,-1628.453072,-1776.494261,-77835.302597
216.309176,-296.082377,-8586.388927,-76303.111601
216.311727,-740.205942,-11547.212695,-77375.645298
216.314278,888.247130,-296.082377,-76303.111601
216.316828,0.000000,-2368.659014,-75843.454302
216.319379,-2368.659014,-6513.812290,-80440.027290
216.321930,-592.164754,-2516.700203,-80286.808190
216.324481,888.247130,-7994.224174,-75996.673402
216.327032,-2368.659014,-7994.224174,-75077.358804
216.329583,1036.288319,-11991.336260,-78448.178995
216.332134,1036.288319,-13323.706956,-76762.768900
216.334684,-296.082377,-14804.118840,-78448.178995
216.337235,-1332.370696,-3552.988522,-75690.235202
216.339786,2072.576638,-3256.906145,-80899.684589
216.342337,-1036.288319,-2516.700203,-79214.274493
216.344888,-592.164754,-1184.329507,-81512.560987
216.347439,1184.329507,3997.112087,-77375.645298
216.349990,-1480.411884,888.247130,-78907.836294
216.352540,-1184.329507,9178.553681,-80440.027290
216.355091,3701.029710,4145.153275,-78141.740796
216.357642,1480.411884,4737.318029,-76149.892501
216.360193,-1036.288319,1776.494261,-78448.178995
216.362744,0.000000,2516.700203,-77069.207099
216.365295,-444.123565,-2664.741391,-79061.055394
216.367846,-4885.359217,2072.576638,-81359.341888
216.370402,2368.659014,4737.318029,-79061.055394
216.372957,1332.370696,3108.864956,-78141.740796
216.375513,-3256.906145,1480.411884,-79827.150892
216.378069,1628.453072,8290.306550,-78294.959896
216.380625,-592.164754,-3849.070898,-78907.836294
216.383181,-1332.370696,-592.164754,-78141.740796
216.385737,-444.123565,5477.523971,-78294.959896
216.388293,1036.288319,1480.411884,-77835.302597
216.390849,-2812.782580,6661.853478,-76762.768900
216.393405,-444.123565,8142.265362,-76609.549800
216.395961,148.041188,6069.688724,-76762.768900
216.398517,-888.247130,1628.453072,-78294.959896
216.401073,148.041188,1480.411884,-79061.055394
216.403629,-740.205942,-148.041188,-77069.207099
216.406185,-740.205942,-5033.400406,-77988.521696
216.408741,-1184.329507,-8438.347739,-79367.493593
216.411296,0.000000,-10214.842000,-76915.987999
216.413852,-1628.453072,-14359.995275,-78141.740796
216.416408,444.123565,-6217.729913,-78754.617194
216.418964,1184.329507,-7402.059420,-76456.330700
216.421520,-1036.288319,-4293.194464,-76456.330700
216.424076,-592.164754,-2664.741391,-77682.083497
216.426632,1184.329507,-2812.782580,-78141.740796
216.429188,-3552.988522,-5625.565159,-79214.274493
216.431744,-148.041188,-5329.482782,-81665.780087
216.434300,1480.411884,-13915.871710,-79367.493593
216.436856,-444.123565,-5773.606348,-75690.235202
216.439412,-1628.453072,-5329.482782,-81052.903688
216.441968,740.205942,148.041188,-78141.740796
216.444524,-2368.659014,-9030.512492,-80286.808190
216.447079,1184.329507,-5625.565159,-78294.959896
216.449635,444.123565,-10658.965565,-79367.493593
216.452195,1480.411884,-10658.965565,-76303.111601
216.454755,-5181.441594,-12583.501014,-77988.521696
216.457315,-296.082377,-2664.741391,-79673.931792
216.459875,0.000000,-5773.606348,-79520.712692
216.462435,-2220.617826,-2812.782580,-81052.903688
216.464995,1332.370696,-888.247130,-77222.426198
216.467555,1628.453072,1628.453072,-78141.740796
216.470115,-1480.411884,4589.276840,-76762.768900
216.472675,-1776.494261,10955.047942,-76149.892501
216.475235,-592.164754,5181.441594,-77528.864398
216.477795,-444.123565,5033.400406,-77835.302597
216.480355,-888.247130,2220.617826,-77682.083497
216.482915,444.123565,-2220.617826,-74924.139704
216.485475,-1776.494261,-3108.864956,-76456.330700
216.488035,2516.700203,-740.205942,-77528.864398
216.490595,-148.041188,1036.288319,-77069.207099
216.493155,-148.041188,3997.112087,-77988.521696
216.495714,-1480.411884,6217.729913,-79214.274493
216.498274,-444.123565,1776.494261,-77528.864398
216.500834,0.000000,-592.164754,-78448.178995
216.503394,-296.082377,0.000000,-78294.959896
216.505954,1332.370696,2664.741391,-76456.330700
216.508514,-2664.741391,1924.535449,-77069.207099
216.511074,-888.247130,10214.842000,-75843.454302
216.513634,-148.041188,9770.718434,-80746.465489
216.516194,0.000000,2960.823768,-80133.589091
216.518754,-1332.370696,3404.947333,-80746.465489
216.521314,1332.370696,0.000000,-78294.959896
216.523874,-1480.411884,-2960.823768,-78294.959896
216.526434,-1184.329507,-5921.647536,-80440.027290
216.528994,1628.453072,-11399.171507,-79367.493593
216.531554,0.000000,-11843.295072,-78601.398095
216.534114,-2516.700203,-9622.677246,-77682.083497
216.536674,1776.494261,-5477.523971,-78141.740796
216.539234,-888.247130,-3849.070898,-77222.426198
216.541794,-2220.617826,-3256.906145,-80899.684589
216.544353,0.000000,1184.329507,-78601.398095
216.546913,2220.617826,-6661.853478,-79214.274493
216.549473,-3849.070898,-5329.482782,-78754.617194
216.552033,2812.782580,-12139.377449,-78294.959896
216.554558,0.000000,-5033.400406,-76609.549800
216.557083,-148.041188,-4737.318029,-76149.892501
216.559608,-2516.700203,-4589.276840,-79673.931792
216.562132,-444.123565,-3701.029710,-75843.454302
216.564657,-444.123565,-7994.224174,-77835.302597
216.567182,-1480.411884,-6365.771101,-75996.673402
216.569707,444.123565,-12139.377449,-76303.111601
216.572231,-1776.494261,-13471.748144,-78601.398095
216.574756,-592.164754,-7698.141797,-77528.864398
216.577281,2072.576638,-2960.823768,-78754.617194
216.579806,-888.247130,-4885.359217,-79980.369991
216.582330,740.205942,888.247130,-78754.617194
216.584855,444.123565,444.123565,-76609.549800
216.587380,-1332.370696,4589.276840,-78448.178995
216.589905,-148.041188,7846.182985,-79214.274493
216.592429,740.205942,6069.688724,-77222.426198
216.594954,-1036.288319,6217.729913,-76303.111601
216.597479,444.123565,3552.988522,-76149.892501
216.600004,740.205942,1332.370696,-77528.864398
216.602528,-2368.659014,-6365.771101,-79827.150892
216.605053,-1332.370696,4737.318029,-80899.684589
216.607578,1776.494261,3997.112087,-79827.150892
216.610103,-592.164754,-592.164754,-78754.617194
216.612627,-296.082377,5329.482782,-80440.027290
216.615152,888.247130,148.041188,-77988.521696
216.617677,-148.041188,7846.182985,-77222.426198
216.620202,-2516.700203,5477.523971,-78907.836294
216.622726,-444.123565,6661.853478,-79520.712692
216.625251,444.123565,1184.329507,-77988.521696
216.627776,-4737.318029,6069.688724,-78294.959896
216.630301,592.164754,7402.059420,-79061.055394
216.632825,444.123565,5477.523971,-79367.493593
216.635350,-2516.700203,4589.276840,-79673.931792
216.637875,1776.494261,2812.782580,-77682.083497
216.640400,296.082377,-2664.741391,-78294.959896
216.642924,-1184.329507,-10066.800811,-77222.426198
216.645449,-740.205942,-9326.594869,-77682.083497
216.647974,-592.164754,-14952.160028,-77222.426198
216.650499,-1332.370696,-11547.212695,-77835.302597
216.653024,-740.205942,-7846.182985,-77528.864398
216.655557,148.041188,-3701.029710,-76303.111601
216.658092,-444.123565,-3997.112087,-77988.521696
216.660627,296.082377,2664.741391,-77069.207099
216.663163,-148.041188,-7698.141797,-77375.645298
216.665698,-2812.782580,-10807.006753,-77988.521696
216.668233,-740.205942,592.164754,-78601.398095
216.670769,296.082377,-12879.583391,-79214.274493
216.673304,-1036.288319,-12879.583391,-78754.617194
216.675839,-296.082377,-1184.329507,-75077.358804
216.678375,-1332.370696,-2960.823768,-75690.235202
216.680910,-1332.370696,-8142.265362,-78601.398095
216.683446,296.082377,-8142.265362,-76149.892501
216.685981,296.082377,-8438.347739,-79980.369991
216.688516,-1924.535449,-14508.036463,-78907.836294
216.691052,-1036.288319,-4589.276840,-79827.150892
216.693587,1036.288319,-3997.112087,-78601.398095
216.696122,-1332.370696,-6217.729913,-81206.122788
216.698658,592.164754,-1036.288319,-79827.150892
216.701193,1776.494261,5329.482782,-76456.330700
216.703729,-888.247130,4737.318029,-76915.987999
216.706264,-3108.864956,11547.212695,-78141.740796
216.708799,148.041188,8438.347739,-79980.369991
216.711335,1036.288319,3552.988522,-76609.549800
216.713870,-1480.411884,-5181.441594,-77988.521696
216.716405,-1924.535449,-592.164754,-77375.645298
216.718941,1332.370696,-1924.535449,-76915.987999
216.721476,-592.164754,-740.205942,-75843.454302
216.724011,296.082377,7550.100608,-77375.645298
216.726547,1184.329507,1628.453072,-77988.521696
216.729082,-1924.535449,3404.947333,-79520.712692
216.731618,-1184.329507,-1036.288319,-81818.999186
216.734153,888.247130,4145.153275,-79367.493593
216.736688,296.082377,2516.700203,-79827.150892
216.739224,-888.247130,4145.153275,-80133.589091
216.741759,1628.453072,6513.812290,-77069.207099
216.744294,0.000000,3849.070898,-78754.617194
216.746830,-592.164754,9918.759623,-79980.369991
216.749365,1184.329507,3701.029710,-78754.617194
216.751901,-888.247130,1184.329507,-76915.987999
216.754436,-2664.741391,-1480.411884,-79980.369991
216.756980,0.000000,-4293.194464,-77682.083497
216.759525,1332.370696,-14359.995275,-79673.931792
216.762070,-2960.823768,-11843.295072,-79827.150892
216.764614,1776.494261,-10807.006753,-78141.740796
216.767159,-888.247130,-10214.842000,-79214.274493
216.769703,-2072.576638,-2960.823768,-79827.150892
216.772248,888.247130,296.082377,-77988.521696
216.774792,592.164754,-1776.494261,-76456.330700
216.777337,-1480.411884,-4145.153275,-79214.274493
216.779882,0.000000,-3108.864956,-78294.959896
216.782426,-148.041188,-15248.242405,-78141.740796
216.784971,-1480.411884,-7105.977043,-74770.920605
216.787515,148.041188,296.082377,-76609.549800
216.790060,-592.164754,-6661.853478,-79061.055394
216.792604,-2664.741391,-6957.935855,-80286.808190
216.795149,740.205942,-6069.688724,-79061.055394
216.797694,-296.082377,-8142.265362,-76456.330700
216.800238,0.000000,-13175.665768,-77835.302597
216.802783,-740.205942,-8586.388927,-78141.740796
216.805327,740.205942,-9770.718434,-76149.892501
216.807872,-2368.659014,-4293.194464,-76609.549800
216.810416,-296.082377,-5329.482782,-78907.836294
216.812961,1628.453072,-1332.370696,-77835.302597
216.815506,-1776.494261,2960.823768,-78754.617194
216.818050,-2072.576638,10658.965565,-79367.493593
216.820595,1628.453072,9474.636058,-77375.645298
216.823139,-296.082377,7402.059420,-77069.207099
216.825684,-148.041188,4589.276840,-79367.493593
216.828228,888.247130,-1480.411884,-76762.768900
216.830773,-1184.329507,-6069.688724,-79520.712692
216.833318,-1332.370696,-2812.782580,-79367.493593
216.835862,592.164754,0.000000,-77682.083497
216.838407,592.164754,-3849.070898,-79520.712692
216.840951,-2368.659014,16728.654289,-79367.493593
216.843496,0.000000,444.123565,-80286.808190
216.846040,-740.205942,4145.153275,-77988.521696
216.848585,-1924.535449,5033.400406,-79827.150892
216.851130,1480.411884,6365.771101,-79367.493593
216.853674,-1924.535449,-1184.329507,-79980.369991
216.856219,-1332.370696,5329.482782,-80133.589091
216.858770,-592.164754,8290.306550,-76915.987999
216.861321,296.082377,2368.659014,-77835.302597
216.863872,-148.041188,5773.606348,-79061.055394
216.866424,1628.453072,2960.823768,-77835.302597
216.868975,740.205942,1924.535449,-75537.016103
216.871526,-4145.153275,-13027.624579,-79980.369991
216.874077,2220.617826,-7105.977043,-78754.617194
216.876628,-2960.823768,-18949.272115,-79980.369991
216.879180,-1628.453072,-8882.471304,-79980.369991
216.881731,-1332.370696,-11103.089130,-78601.398095
216.884282,1184.329507,-296.082377,-75690.235202
216.886833,-1036.288319,-4145.153275,-77528.864398
216.889385,592.164754,2368.659014,-77222.426198
216.891936,-888.247130,-5181.441594,-77528.864398
216.894487,-1184.329507,-12583.501014,-78601.398095
216.897038,-2664.741391,-7698.141797,-76303.111601
216.899589,592.164754,-7254.018232,-75996.673402
216.902141,-1184.329507,-1480.411884,-78601.398095
216.904692,-592.164754,-8586.388927,-80286.808190
216.907243,1036.288319,-5329.482782,-77682.083497
216.909794,148.041188,-10955.047942,-79827.150892
216.912345,-444.123565,-4441.235652,-79827.150892
216.914897,1184.329507,-11843.295072,-77682.083497
216.917448,-1924.535449,-8142.265362,-78141.740796
216.919999,-740.205942,-8734.430116,-78907.836294
216.922550,0.000000,-7254.018232,-77069.207099
216.925102,1480.411884,-3849.070898,-79367.493593
216.927653,-1924.535449,6365.771101,-79827.150892
216.930204,2516.700203,11251.130318,-77375.645298
216.932755,-2220.617826,10955.047942,-77835.302597
216.935306,-1184.329507,8882.471304,-80899.684589
216.937858,1628.453072,6069.688724,-80133.589091
216.940409,-1036.288319,296.082377,-79367.493593
216.942960,-2516.700203,-888.247130,-81665.780087
216.945511,0.000000,-2516.700203,-77682.083497
216.948062,-296.082377,-740.205942,-74617.701505
216.950614,-888.247130,2220.617826,-77528.864398
216.953165,1332.370696,5033.400406,-78754.617194
216.955716,-148.041188,9918.759623,-76762.768900
216.958267,-5329.482782,-1036.288319,-79673.931792
216.960824,-296.082377,9030.512492,-79061.055394
216.963382,1924.535449,740.205942,-80286.808190
216.965939,-592.164754,3701.029710,-80593.246390
216.968496,-1628.453072,3404.947333,-76609.549800
216.971053,1036.288319,5773.606348,-74464.482406
216.973610,-2960.823768,5477.523971,-76456.330700
216.976167,148.041188,6365.771101,-78601.398095
216.978724,592.164754,3256.906145,-76609.549800
216.981281,-1480.411884,-888.247130,-76456.330700
216.983838,-1332.370696,-5625.565159,-77222.426198
216.986396,-592.164754,-12879.583391,-75843.454302
216.988953,-1332.370696,-17468.860231,-79214.274493
216.991510,0.000000,-10658.965565,-79214.274493
216.994067,1332.370696,-9030.512492,-77835.302597
216.996624,-1480.411884,-4441.235652,-78294.959896
216.999181,-1924.535449,1776.494261,-79520.712692
217.001738,1628.453072,2368.659014,-77222.426198
217.004295,-592.164754,-6957.935855,-77682.083497
217.006853,148.041188,-2220.617826,-78141.740796
217.009410,-148.041188,-15988.448347,-78294.959896
217.011967,1184.329507,-11399.171507,-79367.493593
217.014524,-2220.617826,-9030.512492,-80593.246390
217.017081,2220.617826,-3552.988522,-79980.369991
217.019638,-3552.988522,-6957.935855,-78907.836294
217.022195,-444.123565,-4737.318029,-81206.122788
217.024752,740.205942,-9326.594869,-79367.493593
217.027309,-592.164754,-8438.347739,-80440.027290
217.029867,-1332.370696,-7550.100608,-80133.589091
217.032424,2072.576638,-6809.894666,-76609.549800
217.034981,-1036.288319,-10362.883188,-77375.645298
217.037538,-1776.494261,-2368.659014,-79520.712692
217.040095,0.000000,6069.688724,-79520.712692
217.042652,592.164754,8882.471304,-78754.617194
217.045209,-4885.359217,12287.418637,-80133.589091
217.047766,296.082377,12731.542202,-78601.398095
217.050323,1332.370696,3849.070898,-78907.836294
217.052881,-444.123565,3997.112087,-79061.055394
217.055438,-2072.576638,-2220.617826,-77835.302597
217.057995,1036.288319,-6365.771101,-76303.111601
217.060552,-2516.700203,-3256.906145,-77528.864398
217.063114,-444.123565,-1776.494261,-77069.207099
217.065676,1924.535449,15248.242405,-72932.291410
217.068238,-2368.659014,-1628.453072,-78448.178995
217.070800,-888.247130,8290.306550,-76915.987999
217.073362,296.082377,3701.029710,-76149.892501
217.075924,-3849.070898,7846.182985,-79061.055394
217.078486,0.000000,4737.318029,-79673.931792
217.081048,-740.205942,296.082377,-77069.207099
217.083610,-1924.535449,1332.370696,-77069.207099
217.086172,-1480.411884,3997.112087,-79673.931792
217.088734,1628.453072,6069.688724,-76303.111601
217.091296,148.041188,2220.617826,-77222.426198
217.093858,148.041188,2220.617826,-75996.673402
217.096420,-444.123565,-12731.542202,-75537.016103
217.098981,-296.082377,-13619.789333,-79673.931792
217.101543,-2220.617826,-15988.448347,-81206.122788
217.104105,3108.864956,-10066.800811,-79827.150892
217.106667,-3108.864956,-13027.624579,-81206.122788
217.109229,-1184.329507,1184.329507,-79673.931792
217.111791,444.123565,-1776.494261,-78294.959896
217.114353,0.000000,2368.659014,-77528.864398
217.116915,-740.205942,-1184.329507,-80133.589091
217.119477,444.123565,-11547.212695,-78294.959896
217.122039,-1628.453072,-9178.553681,-78448.178995
217.124601,-148.041188,-8734.430116,-78141.740796
217.127163,592.164754,-8586.388927,-79367.493593
217.129725,888.247130,-6957.935855,-76149.892501
217.132287,-888.247130,-10807.006753,-77222.426198
217.134849,-1332.370696,-5625.565159,-76915.987999
217.137411,888.247130,-8586.388927,-76915.987999
217.139973,-1332.370696,-9474.636058,-77682.083497
217.142535,-1184.329507,-5477.523971,-76762.768900
217.145097,740.205942,-9770.718434,-78907.836294
217.147659,-1184.329507,-5625.565159,-79827.150892
217.150221,-1184.329507,5477.523971,-81512.560987
217.152783,2812.782580,8882.471304,-78294.959896
217.155345,-1628.453072,12731.542202,-77682.083497
217.157907,-1480.411884,9770.718434,-78754.617194
217.160469,444.123565,8734.430116,-76303.111601
217.163031,-296.082377,-1924.535449,-79061.055394
217.165596,-3552.988522,-3552.988522,-80593.246390
217.168161,-2368.659014,-3849.070898,-79827.150892
217.170726,296.082377,-3552.988522,-79367.493593
217.173291,-740.205942,6069.688724,-78907.836294
217.175856,2812.782580,5181.441594,-79214.274493
217.178421,-444.123565,5921.647536,-78754.617194
217.180986,-1184.329507,7846.182985,-80286.808190
217.183551,-592.164754,4293.194464,-79980.369991
217.186116,1628.453072,888.247130,-78294.959896
217.188681,888.247130,3849.070898,-76456.330700
217.191246,-2516.700203,3552.988522,-76303.111601
217.193811,444.123565,3701.029710,-76762.768900
217.196376,-1184.329507,3997.112087,-77988.521696
217.198941,1332.370696,5921.647536,-78141.740796
217.201506,0.000000,5921.647536,-78141.740796
217.204071,-2516.700203,-2812.782580,-79520.712692
217.206636,-444.123565,-7994.224174,-78448.178995
217.209201,592.164754,-17468.860231,-76915.987999
217.211766,-1184.329507,-16728.654289,-77069.207099
217.214331,148.041188,-11103.089130,-78448.178995
217.216896,740.205942,-6365.771101,-75537.016103
217.219461,-1332.370696,-4441.235652,-77222.426198
217.222026,-1184.329507,3108.864956,-75843.454302
217.224591,148.041188,1036.288319,-76915.987999
217.227156,-1776.494261,-2664.741391,-78907.836294
217.229721,-1480.411884,-9474.636058,-82891.532884
217.232286,1924.535449,-14063.912898,-81206.122788
217.234851,-592.164754,-9622.677246,-78294.959896
217.237416,444.123565,-4441.235652,-78448.178995
217.239981,444.123565,-8438.347739,-77222.426198
217.242546,-1332.370696,-7994.224174,-78294.959896
217.245111,-888.247130,-7402.059420,-80593.246390
217.247676,296.082377,-6365.771101,-78907.836294
217.250241,-1480.411884,-10807.006753,-78601.398095
217.252806,-2368.659014,-4589.276840,-78294.959896
217.255371,592.164754,-8882.471304,-78294.959896
217.257936,1924.535449,-2960.823768,-78141.740796
217.260501,-1480.411884,4737.318029,-81359.341888
217.263066,1184.329507,13175.665768,-79673.931792
217.265631,-2220.617826,11103.089130,-78907.836294
217.268199,-888.247130,16284.530724,-79980.369991
217.270767,-148.041188,5921.647536,-79520.712692
217.273335,-1480.411884,-2664.741391,-76303.111601
217.275903,-1924.535449,-6513.812290,-78754.617194
217.278470,-888.247130,-3701.029710,-77988.521696
217.281038,148.041188,3108.864956,-76762.768900
217.283606,-1924.535449,-9326.594869,-78141.740796
217.286174,2220.617826,13471.748144,-75230.577904
217.288742,-148.041188,7550.100608,-75230.577904
217.291309,-6661.853478,5329.482782,-80746.465489
217.293877,4145.153275,9178.553681,-79520.712692
217.296445,1332.370696,-2812.782580,-79980.369991
217.299013,-592.164754,4441.235652,-77222.426198
217.301581,-740.205942,-148.041188,-76609.549800
217.304149,1036.288319,6809.894666,-74158.044206
217.306716,-3256.906145,-1332.370696,-77835.302597
217.309284,-444.123565,9918.759623,-77835.302597
217.311852,1036.288319,-148.041188,-75996.673402
217.314420,-1036.288319,-6217.729913,-78141.740796
217.316988,-1924.535449,-10510.924376,-79673.931792
217.319555,1332.370696,-15840.407159,-77682.083497
217.322123,-740.205942,-16876.695478,-79520.712692
217.324691,-296.082377,-8882.471304,-79827.150892
217.327259,148.041188,-6217.729913,-78448.178995
217.329827,-444.123565,-1480.411884,-77682.083497
217.332394,-1184.329507,3404.947333,-78601.398095
217.334962,1036.288319,-740.205942,-77528.864398
217.337530,-2812.782580,-11251.130318,-78907.836294
217.340098,-3404.947333,-9178.553681,-80899.684589
217.342666,888.247130,-4293.194464,-78907.836294
217.345233,296.082377,-11251.130318,-79061.055394
217.347801,-444.123565,-7105.977043,-78294.959896
217.350369,1776.494261,-8586.388927,-77069.207099
217.352937,-1776.494261,-8586.388927,-78907.836294
217.355505,-444.123565,-6957.935855,-82431.875585
217.358073,-444.123565,-6217.729913,-79673.931792
217.360640,148.041188,-10362.883188,-79520.712692
217.363208,-2664.741391,-9474.636058,-76149.892501
217.365776,1332.370696,-2960.823768,-75690.235202
217.368344,-148.041188,2368.659014,-76456.330700
217.370878,-1628.453072,7698.141797,-79980.369991
217.373412,592.164754,16136.489536,-78141.740796
217.375946,888.247130,10214.842000,-78448.178995
217.378481,-4145.153275,9178.553681,-78754.617194
217.381015,1480.411884,3404.947333,-78141.740796
217.383549,148.041188,-2960.823768,-76609.549800
217.386083,-2516.700203,-10214.842000,-77988.521696
217.388617,296.082377,-1332.370696,-77988.521696
217.391151,888.247130,4885.359217,-74924.139704
217.393686,-1036.288319,1332.370696,-76609.549800
217.396220,-888.247130,7105.977043,-76762.768900
217.398754,-592.164754,3404.947333,-75690.235202
217.401288,-2664.741391,6365.771101,-77682.083497
217.403822,592.164754,5181.441594,-78448.178995
217.406357,3849.070898,2664.741391,-80133.589091
217.408891,-1924.535449,2220.617826,-77835.302597
217.411425,-1628.453072,5477.523971,-77222.426198
217.413959,-444.123565,2960.823768,-77222.426198
217.416493,-444.123565,2516.700203,-79367.493593
217.419028,0.000000,4441.235652,-79980.369991
217.421562,1036.288319,-6365.771101,-76762.768900
217.424096,-3404.947333,-14804.118840,-77069.207099
217.426630,-1184.329507,-14952.160028,-79980.369991
217.429164,2072.576638,-14063.912898,-79827.150892
217.431699,1480.411884,-10807.006753,-78141.740796
217.434233,-1480.411884,-2368.659014,-80440.027290
217.436767,296.082377,2220.617826,-78294.959896
217.439301,-740.205942,-1332.370696,-79367.493593
217.441835,-296.082377,-296.082377,-79673.931792
217.444370,1924.535449,-7846.182985,-79980.369991
217.446904,-2960.823768,-7105.977043,-78141.740796
217.449438,-1776.494261,-5477.523971,-75537.016103
217.451972,1628.453072,-6513.812290,-78448.178995
217.454506,-444.123565,-9326.594869,-78141.740796
217.457040,-1036.288319,-11843.295072,-78601.398095
217.459575,-1184.329507,-6365.771101,-76915.987999
217.462109,740.205942,-5477.523971,-76762.768900
217.464643,-5181.441594,-6069.688724,-79980.369991
217.467177,1776.494261,-4885.359217,-78907.836294
217.469711,-296.082377,-9326.594869,-75843.454302
217.472254,-592.164754,-7105.977043,-77222.426198
217.474797,-888.247130,3997.112087,-77835.302597
217.477340,2072.576638,7846.182985,-75077.358804
217.479883,-2368.659014,14211.954086,-76762.768900
217.482425,-740.205942,11695.253884,-77528.864398
217.484968,148.041188,8882.471304,-76149.892501
217.487511,-592.164754,-1776.494261,-77528.864398
217.490054,-1184.329507,-1776.494261,-77835.302597
217.492597,1332.370696,-8734.430116,-79061.055394
217.495139,-1332.370696,-1628.453072,-76762.768900
217.497682,-740.205942,3552.988522,-78907.836294
217.500225,1628.453072,4441.235652,-78601.398095
217.502768,-888.247130,7698.141797,-76915.987999
217.505310,-296.082377,2812.782580,-81206.122788
217.507853,-444.123565,11251.130318,-77835.302597
217.510396,-888.247130,-444.123565,-79673.931792
217.512939,-2516.700203,5477.523971,-81665.780087
217.515482,1184.329507,1184.329507,-78601.398095
217.518024,1184.329507,1480.411884,-76303.111601
217.520567,-2960.823768,5477.523971,-78754.617194
217.523110,1480.411884,7550.100608,-81052.903688
217.525653,-2516.700203,-2072.576638,-79520.712692
217.528196,-740.205942,-7846.182985,-81052.903688
217.530738,1036.288319,-11547.212695,-77528.864398
217.533281,-2960.823768,-19985.560434,-79673.931792
217.535824,-1332.370696,-13175.665768,-78294.959896
217.538367,-740.205942,-5773.606348,-78754.617194
217.540910,-148.041188,-1924.535449,-77528.864398
217.543452,-1332.370696,1480.411884,-77835.302597
217.545995,-592.164754,-740.205942,-79520.712692
217.548538,0.000000,-6957.935855,-77069.207099
217.551081,-1332.370696,-8142.265362,-78907.836294
217.553624,-296.082377,-6809.894666,-78141.740796
217.556166,296.082377,-7105.977043,-76303.111601
217.558709,740.205942,-10807.006753,-77222.426198
217.561252,-1480.411884,-5921.647536,-78448.178995
217.563795,1184.329507,-9770.718434,-79827.150892
217.566337,-2072.576638,-8290.306550,-78754.617194
217.568880,-1184.329507,-7698.141797,-82738.313784
217.571423,1628.453072,-5033.400406,-78601.398095
217.573973,-1184.329507,-10510.924376,-79367.493593
217.576523,-148.041188,-2220.617826,-78601.398095
217.579073,1628.453072,1036.288319,-79673.931792
217.581623,-740.205942,9178.553681,-77222.426198
217.584173,-2960.823768,13027.624579,-77682.083497
217.586723,1036.288319,13323.706956,-77682.083497
217.589273,-592.164754,6809.894666,-77375.645298
217.591823,-2220.617826,296.082377,-78754.617194
217.594373,592.164754,-1480.411884,-79214.274493
217.596924,1184.329507,-5477.523971,-79827.150892
217.599474,-2664.741391,-2072.576638,-80286.808190
217.602024,-444.123565,-592.164754,-78141.740796
217.604574,2072.576638,7698.141797,-73698.386908
217.607124,-2812.782580,1184.329507,-77375.645298
217.609674,-2368.659014,10362.883188,-76762.768900
217.612224,1480.411884,2072.576638,-77222.426198
217.614774,-148.041188,9622.677246,-77069.207099
217.617324,-1776.494261,3404.947333,-79673.931792
217.619874,444.123565,2664.741391,-76303.111601
217.622424,-2960.823768,1924.535449,-76303.111601
217.624974,-592.164754,3552.988522,-80440.027290
217.627524,444.123565,4441.235652,-77988.521696
217.630074,1184.329507,-6809.894666,-79367.493593
217.632624,-2072.576638,-7698.141797,-78448.178995
217.635174,740.205942,-16580.613101,-78294.959896
217.637724,-2516.700203,-17616.901420,-77835.302597
217.640274,1184.329507,-12583.501014,-78601.398095
217.642824,1036.288319,-7994.224174,-75996.673402
217.645374,-1036.288319,-2516.700203,-78141.740796
217.647924,-1036.288319,2812.782580,-78448.178995
217.650475,0.000000,-148.041188,-78294.959896
217.653025,-1480.411884,-8734.430116,-79520.712692
217.655581,-1036.288319,-3552.988522,-81359.341888
217.658136,444.123565,-8142.265362,-79827.150892
217.660692,-1776.494261,-11399.171507,-79520.712692
217.663247,-148.041188,-8290.306550,-79980.369991
217.665802,2220.617826,-10807.006753,-77835.302597
217.668357,-444.123565,-10214.842000,-76303.111601
217.670912,-1628.453072,-5181.441594,-77988.521696
217.673467,740.205942,-5625.565159,-80440.027290
217.676022,0.000000,-6217.729913,-78907.836294
217.678577,-4145.153275,-10955.047942,-79367.493593
217.681132,2516.700203,-4885.359217,-76762.768900
217.683687,-148.041188,1776.494261,-78754.617194
217.686242,-1480.411884,10658.965565,-80593.246390
217.688797,-148.041188,17320.819043,-78754.617194
217.691352,888.247130,10362.883188,-76303.111601
217.693908,-296.082377,7402.059420,-76915.987999
217.696463,-1332.370696,-296.082377,-77222.426198
217.699018,-740.205942,-5033.400406,-76762.768900
217.701573,-2368.659014,-7254.018232,-78141.740796
217.704128,-592.164754,-3701.029710,-77835.302597
217.706683,-592.164754,4589.276840,-74004.825107
217.709238,-1184.329507,5773.606348,-76915.987999
217.711793,-888.247130,11843.295072,-77528.864398
217.714348,-296.082377,4885.359217,-78601.398095
217.716903,-1036.288319,5921.647536,-79673.931792
217.719458,-740.205942,5181.441594,-80593.246390
217.722013,1776.494261,4293.194464,-77528.864398
217.724568,-2664.741391,-1628.453072,-77528.864398
217.727124,-592.164754,5033.400406,-76456.330700
217.729679,740.205942,2072.576638,-76609.549800
217.732234,-296.082377,3256.906145,-77069.207099
217.734789,-1332.370696,-5033.400406,-80746.465489
217.737344,444.123565,-8734.430116,-78601.398095
217.739899,-2812.782580,-19097.313304,-78294.959896
217.742454,-888.247130,-13619.789333,-81052.903688
217.745009,1332.370696,-13027.624579,-79673.931792
217.747564,-1332.370696,-7550.100608,-79980.369991
217.750119,-740.205942,1628.453072,-78907.836294
217.752674,2220.617826,-444.123565,-76609.549800
217.755229,1036.288319,-7105.977043,-77988.521696
217.757789,-2368.659014,-3108.864956,-77375.645298
217.760349,592.164754,-592.164754,-78294.959896
217.762909,-740.205942,-17024.736666,-82125.437386
217.765468,-3108.864956,-3997.112087,-81052.903688
217.768028,2960.823768,-14211.954086,-79061.055394
217.770588,444.123565,-7550.100608,-77222.426198
217.773148,-2960.823768,-9622.677246,-79520.712692
217.775707,888.247130,-1184.329507,-79061.055394
217.778267,296.082377,-6957.935855,-77222.426198
217.780827,-1776.494261,-6957.935855,-79367.493593
217.783387,-2072.576638,-5477.523971,-76915.987999
217.785946,-740.205942,-1332.370696,-76915.987999
217.788506,-444.123565,4589.276840,-77682.083497
217.791066,148.041188,11103.089130,-79061.055394
217.793626,0.000000,14952.160028,-77835.302597
217.796186,-3552.988522,11547.212695,-77375.645298
217.798745,-1332.370696,4885.359217,-79673.931792
217.801305,-1184.329507,-4293.194464,-77528.864398
217.803865,740.205942,-4145.153275,-78907.836294
217.806425,-1480.411884,-2072.576638,-79061.055394
217.808984,0.000000,-888.247130,-77682.083497
217.811544,-1776.494261,740.205942,-76609.549800
217.814104,1332.370696,5773.606348,-77069.207099
217.816664,-740.205942,6809.894666,-74004.825107
217.819223,148.041188,3701.029710,-79673.931792
217.821783,-148.041188,11547.212695,-81052.903688
217.824343,740.205942,3701.029710,-80133.589091
217.826903,-3404.947333,4441.235652,-80899.684589
217.829462,-1924.535449,4441.235652,-79980.369991
217.832022,592.164754,0.000000,-77988.521696
217.834582,-740.205942,1924.535449,-78448.178995
217.837142,296.082377,-1480.411884,-81052.903688
217.839701,0.000000,-12287.418637,-77682.083497
217.842261,-1184.329507,-15100.201217,-76609.549800
217.844821,-4589.276840,-16136.489536,-79980.369991
217.847381,1332.370696,-9474.636058,-79367.493593
217.849940,0.000000,-8882.471304,-78294.959896
217.852500,-2072.576638,444.123565,-78907.836294
217.855060,0.000000,3997.112087,-78448.178995
217.857620,740.205942,-148.041188,-78601.398095
217.860183,-1628.453072,-8290.306550,-79827.150892
217.862747,2368.659014,-3552.988522,-78754.617194
217.865311,740.205942,-5181.441594,-75383.797003
217.867874,-3404.947333,-13471.748144,-77835.302597
217.870438,0.000000,-7105.977043,-77375.645298
217.873001,-740.205942,-13915.871710,-76915.987999
217.875565,-1332.370696,-8586.388927,-76456.330700
217.878128,296.082377,-4441.235652,-76915.987999
217.880692,444.123565,-6957.935855,-76762.768900
217.883256,-1480.411884,-7550.100608,-79367.493593
217.885819,-888.247130,-4885.359217,-78448.178995
217.888383,-740.205942,1184.329507,-76915.987999
217.890946,-1480.411884,4589.276840,-79214.274493
217.893510,-296.082377,13323.706956,-80593.246390
217.896074,1184.329507,12583.501014,-76915.987999
217.898637,-2368.659014,11103.089130,-76762.768900
217.901201,2072.576638,4737.318029,-77222.426198
217.903764,444.123565,-2960.823768,-75843.454302
217.906328,-592.164754,-9622.677246,-77375.645298
217.908892,-3404.947333,-4145.153275,-80899.684589
217.911455,1628.453072,4441.235652,-78907.836294
217.914019,-3997.112087,5921.647536,-78294.959896
217.916582,-740.205942,1776.494261,-81972.218286
217.919146,2072.576638,8586.388927,-78601.398095
217.921710,-592.164754,4589.276840,-79061.055394
217.924273,-1480.411884,12583.501014,-79673.931792
217.926837,1924.535449,4441.235652,-78141.740796
217.929400,444.123565,2812.782580,-76915.987999
217.931964,-3701.029710,2664.741391,-77069.207099
217.934527,740.205942,3849.070898,-77988.521696
217.937091,740.205942,1036.288319,-79367.493593
217.939655,-1480.411884,-4293.194464,-80746.465489
217.942218,1924.535449,-7994.224174,-78754.617194
217.944782,296.082377,-17912.983796,-77835.302597
217.947345,-2072.576638,-13175.665768,-79673.931792
217.949909,1924.535449,-14508.036463,-79980.369991
217.952473,444.123565,-6069.688724,-76762.768900
217.955036,-3552.988522,0.000000,-79367.493593
217.957600,-1480.411884,-148.041188,-80440.027290
217.960163,1924.535449,1332.370696,-77988.521696
217.962730,-1924.535449,-7550.100608,-77988.521696
217.965297,148.041188,-6809.894666,-81665.780087
217.967864,1332.370696,-12435.459826,-78141.740796
217.970431,-444.123565,-11695.253884,-79061.055394
217.972998,-888.247130,-8586.388927,-79214.274493
217.975565,444.123565,-7698.141797,-76149.892501
217.978132,-740.205942,-3997.112087,-77682.083497
217.980699,-2960.823768,-7402.059420,-81206.122788
217.983265,2220.617826,-2516.700203,-79214.274493
217.985832,1776.494261,-10214.842000,-78601.398095
217.988399,-1924.535449,-2368.659014,-78601.398095
217.990966,1332.370696,3997.112087,-79367.493593
217.993533,-1184.329507,9030.512492,-78294.959896
217.996100,-1036.288319,12731.542202,-79367.493593
217.998667,-2664.741391,15692.365970,-77375.645298
218.001234,1332.370696,6069.688724,-76609.549800
218.003801,-1184.329507,-2960.823768,-77375.645298
218.006367,1332.370696,-3701.029710,-78448.178995
218.008934,-296.082377,-3849.070898,-76456.330700
218.011501,-2960.823768,-8882.471304,-79673.931792
218.014068,2812.782580,13027.624579,-76915.987999
218.016635,-1184.329507,3404.947333,-77222.426198
218.019202,-1184.329507,296.082377,-81206.122788
218.021769,148.041188,13471.748144,-78601.398095
218.024336,1184.329507,4589.276840,-78601.398095
218.026903,-3404.947333,8882.471304,-76456.330700
218.029470,296.082377,-296.082377,-79367.493593
218.032036,-592.164754,5477.523971,-74464.482406
218.034603,-1480.411884,-2664.741391,-76609.549800
218.037170,-1628.453072,7105.977043,-77222.426198
218.039737,0.000000,-6661.853478,-79214.274493
218.042304,-1184.329507,-9474.636058,-79827.150892
218.044871,-1332.370696,-15100.201217,-80746.465489
218.047438,148.041188,-13323.706956,-78141.740796
218.050005,-1480.411884,-16284.530724,-79673.931792
218.052572,148.041188,-5921.647536,-80746.465489
218.055138,2812.782580,-1332.370696,-77222.426198
218.057705,-740.205942,-2220.617826,-77528.864398
218.060272,-2960.823768,-888.247130,-79061.055394
218.062839,1480.411884,-148.041188,-76456.330700
218.065408,-296.082377,-8438.347739,-78601.398095
218.067977,-2960.823768,-4293.194464,-80286.808190
218.070546,1332.370696,-10362.883188,-79214.274493
218.073114,444.123565,-12139.377449,-77528.864398
218.075683,-1480.411884,-12435.459826,-79673.931792
218.078252,1776.494261,-6809.894666,-78448.178995
218.080821,-1036.288319,-10362.883188,-79827.150892
218.083390,-1924.535449,-4589.276840,-78294.959896
218.085959,-1480.411884,-8290.306550,-79061.055394
218.088527,296.082377,-2960.823768,-74924.139704
218.091096,-2072.576638,888.247130,-77375.645298
218.093665,888.247130,11695.253884,-77222.426198
218.096234,-1184.329507,12731.542202,-76303.111601
218.098803,-1924.535449,12879.583391,-77528.864398
218.101371,888.247130,10955.047942,-77835.302597
218.103940,296.082377,-148.041188,-78448.178995
218.106509,-3256.906145,-10362.883188,-79827.150892
218.109078,-888.247130,-1924.535449,-80286.808190
218.111647,-148.041188,1924.535449,-76915.987999
218.114215,-1480.411884,-1628.453072,-77528.864398
218.116784,-592.164754,5181.441594,-77069.207099
218.119353,740.205942,3701.029710,-76609.549800
218.121922,-1480.411884,5329.482782,-76762.768900
218.124491,-296.082377,11399.171507,-78294.959896
218.127060,740.205942,7550.100608,-80440.027290
218.129628,-888.247130,4293.194464,-78754.617194
218.132197,-2664.741391,5921.647536,-80133.589091
218.134766,888.247130,-592.164754,-78448.178995
218.137335,-1480.411884,2072.576638,-79214.274493
218.139904,-740.205942,-4589.276840,-79980.369991
218.142472,1924.535449,-10807.006753,-78141.740796
218.145041,-1332.370696,-15396.283594,-78448.178995
218.147610,-3701.029710,-13323.706956,-78754.617194
218.150179,1184.329507,-12583.501014,-78907.836294
218.152748,592.164754,-6513.812290,-78754.617194
218.155317,-1628.453072,444.123565,-79980.369991
218.157885,-740.205942,-148.041188,-77222.426198
218.160454,1332.370696,-444.123565,-77835.302597
218.163023,-1628.453072,-4293.194464,-79520.712692
218.165592,2220.617826,-12435.459826,-79827.150892
218.168162,0.000000,-3552.988522,-77682.083497
218.170733,-2664.741391,-13175.665768,-77682.083497
218.173304,-2072.576638,-8734.430116,-77835.302597
218.175874,-444.123565,-13471.748144,-75537.016103
218.178445,-888.247130,-6809.894666,-76456.330700
218.181015,888.247130,-6661.853478,-77835.302597
218.183586,1332.370696,-4885.359217,-77222.426198
218.186157,-592.164754,-8882.471304,-78294.959896
218.188727,1184.329507,-1776.494261,-76762.768900
218.191298,1184.329507,5181.441594,-77835.302597
218.193868,-1776.494261,8438.347739,-77375.645298
218.196439,-296.082377,16728.654289,-80440.027290
218.199010,-296.082377,10066.800811,-76609.549800
218.201580,-2516.700203,6957.935855,-77375.645298
218.204151,1628.453072,-740.205942,-77835.302597
218.206721,-1184.329507,-5773.606348,-75537.016103
218.209292,-592.164754,-6069.688724,-77682.083497
218.211863,-888.247130,1776.494261,-77528.864398
218.214433,-148.041188,6069.688724,-79673.931792
218.217004,-2220.617826,1036.288319,-80440.027290
218.219574,-592.164754,3849.070898,-81818.999186
218.222145,2516.700203,10066.800811,-78448.178995
218.224716,-1628.453072,7698.141797,-79980.369991
218.227286,-1036.288319,8586.388927,-80593.246390
218.229857,1776.494261,2072.576638,-78294.959896
218.232427,-2072.576638,740.205942,-76609.549800
218.234998,-2516.700203,2368.659014,-77528.864398
218.237569,592.164754,2368.659014,-79520.712692
218.240139,296.082377,-9474.636058,-78907.836294
218.242710,-3256.906145,-11843.295072,-79673.931792
218.245280,1332.370696,-14952.160028,-78601.398095
218.247851,0.000000,-14508.036463,-78601.398095
218.250422,-888.247130,-11843.295072,-79980.369991
218.252992,740.205942,-2812.782580,-78907.836294
218.255563,-148.041188,-1332.370696,-79520.712692
218.258133,-2960.823768,-2072.576638,-76762.768900
218.260704,-1628.453072,2072.576638,-77528.864398
218.263275,296.082377,-11103.089130,-75383.797003
218.265845,-1184.329507,-11547.212695,-77069.207099
218.268416,148.041188,-5181.441594,-75077.358804
218.270954,-1332.370696,-10510.924376,-78141.740796
218.273492,-148.041188,-15692.365970,-79061.055394
218.276031,296.082377,-7846.182985,-75996.673402
218.278569,740.205942,-5329.482782,-78448.178995
218.281107,-1184.329507,-7994.224174,-78601.398095
218.283645,296.082377,-6365.771101,-80133.589091
218.286184,-740.205942,-7105.977043,-76609.549800
218.288722,-1776.494261,444.123565,-77835.302597
218.291260,-1184.329507,8438.347739,-75843.454302
218.293799,2516.700203,12435.459826,-76609.549800
218.296337,-1332.370696,7994.224174,-77069.207099
218.298875,-1480.411884,16136.489536,-77528.864398
218.301413,1332.370696,888.247130,-78754.617194
218.303952,-2960.823768,-5625.565159,-79061.055394
218.306490,-1036.288319,-4293.194464,-83657.628382
218.309028,1184.329507,-3108.864956,-79827.150892
218.311566,-1628.453072,8586.388927,-76915.987999
218.314105,444.123565,2960.823768,-81052.903688
218.316643,1184.329507,3256.906145,-79520.712692
218.319181,888.247130,2812.782580,-78448.178995
218.321720,-1036.288319,6513.812290,-79520.712692
218.324258,740.205942,13619.789333,-76456.330700
218.326796,-296.082377,2960.823768,-78294.959896
218.329334,-3404.947333,3997.112087,-79520.712692
218.331873,1184.329507,3108.864956,-77682.083497
218.334411,1628.453072,1480.411884,-77988.521696
218.336949,-2220.617826,-6661.853478,-79214.274493
218.339487,1628.453072,-8290.306550,-78907.836294
218.342026,-888.247130,-17764.942608,-77988.521696
218.344564,-2516.700203,-13619.789333,-77682.083497
218.347102,-1184.329507,-12435.459826,-77528.864398
218.349641,296.082377,-5033.400406,-75690.235202
218.352179,-444.123565,-2812.782580,-77835.302597
218.354717,-740.205942,3849.070898,-77222.426198
218.357255,-444.123565,-7698.141797,-76915.987999
218.359794,-1480.411884,-5181.441594,-75537.016103
218.362332,1924.535449,-5921.647536,-75537.016103
218.364870,296.082377,-7254.018232,-77375.645298
218.367408,-1776.494261,-12583.501014,-78294.959896
218.369947,-1628.453072,-10807.006753,-78601.398095
218.372493,2812.782580,-5181.441594,-77528.864398
218.375038,-148.041188,-13027.624579,-79214.274493
218.377584,-1924.535449,-1924.535449,-80593.246390
218.380130,1480.411884,-8142.265362,-80286.808190
218.382676,296.082377,-4441.235652,-78294.959896
218.385222,-444.123565,3404.947333,-79520.712692
218.387768,592.164754,11991.336260,-79980.369991
218.390314,-1480.411884,14359.995275,-76456.330700
218.392860,-1184.329507,12287.418637,-77375.645298
218.395406,-2072.576638,7254.018232,-78141.740796
218.397952,296.082377,444.123565,-74924.139704
218.400497,-2220.617826,-8586.388927,-78448.178995
218.403043,888.247130,-2220.617826,-77528.864398
218.405589,444.123565,592.164754,-77222.426198
218.408135,-2960.823768,-444.123565,-79520.712692
218.410681,0.000000,8438.347739,-78141.740796
218.413227,-148.041188,3997.112087,-77375.645298
218.415773,-2812.782580,6809.894666,-77835.302597
218.418319,148.041188,10955.047942,-79673.931792
218.420865,740.205942,6513.812290,-77528.864398
218.423410,-2368.659014,1776.494261,-77069.207099
218.425956,-888.247130,3701.029710,-76609.549800
218.428502,1332.370696,3404.947333,-74158.044206
218.431048,-740.205942,0.000000,-76149.892501
218.433594,-1332.370696,-7105.977043,-81818.999186
218.436140,740.205942,-13027.624579,-79827.150892
218.438686,-4293.194464,-18949.272115,-79827.150892
218.441232,-148.041188,-12139.377449,-81052.903688
218.443778,1924.535449,-12287.418637,-79673.931792
218.446324,-592.164754,-6513.812290,-78601.398095
218.448869,-1036.288319,3404.947333,-78294.959896
218.451415,1036.288319,1924.535449,-77222.426198
218.453961,-2072.576638,-7846.182985,-77835.302597
218.456507,-2812.782580,-11251.130318,-79673.931792
218.459053,2812.782580,-296.082377,-77528.864398
218.461599,-296.082377,-12287.418637,-78141.740796
218.464145,-2812.782580,-10807.006753,-80286.808190
218.466691,1184.329507,-13175.665768,-78601.398095
218.469237,1036.288319,-9918.759623,-78754.617194
218.471782,-444.123565,-5329.482782,-79520.712692
218.474335,1924.535449,-4145.153275,-79980.369991
218.476887,-148.041188,-8142.265362,-77222.426198
218.479439,-2072.576638,-4885.359217,-78448.178995
218.481992,-740.205942,7550.100608,-76915.987999
218.484544,0.000000,9326.594869,-75383.797003
218.487096,-444.123565,15396.283594,-78141.740796
218.489648,148.041188,11547.212695,-77069.207099
218.492201,1332.370696,9178.553681,-74770.920605
218.494753,-1776.494261,-3256.906145,-77528.864398
218.497305,296.082377,-2812.782580,-79214.274493
218.499858,-148.041188,-6809.894666,-79061.055394
218.502410,-2664.741391,592.164754,-77988.521696
218.504962,-1480.411884,5773.606348,-78294.959896
218.507514,1184.329507,5329.482782,-75996.673402
218.510067,-1036.288319,740.205942,-77222.426198
218.512619,1924.535449,10658.965565,-76762.768900
218.515171,0.000000,8882.471304,-75537.016103
218.517724,-888.247130,5033.400406,-78601.398095
218.520276,-3256.906145,7105.977043,-80286.808190
218.522828,2368.659014,740.205942,-79214.274493
218.525380,-4737.318029,1776.494261,-79827.150892
218.527933,1332.370696,-5329.482782,-81052.903688
218.530485,1036.288319,-10066.800811,-79520.712692
218.533037,-888.247130,-15840.407159,-79827.150892
218.535590,-1924.535449,-13915.871710,-80286.808190
218.538142,2368.659014,-14211.954086,-77528.864398
218.540694,-888.247130,-11251.130318,-78754.617194
218.543247,-2072.576638,-1332.370696,-79367.493593
218.545799,-296.082377,2072.576638,-77222.426198
218.548351,444.123565,2516.700203,-76456.330700
218.550903,-3256.906145,-13027.624579,-80899.684589
218.553456,2072.576638,-1924.535449,-78754.617194
218.556008,444.123565,-13027.624579,-79061.055394
218.558560,-444.123565,-6217.729913,-79980.369991
218.561113,740.205942,-15248.242405,-79367.493593
218.563665,2072.576638,-12287.418637,-75077.358804
218.566217,-3108.864956,-6365.771101,-75537.016103
218.568769,-1036.288319,-7105.977043,-77835.302597
218.571322,-592.164754,-6809.894666,-77528.864398
218.573874,-740.205942,-9178.553681,-77835.302597
218.576398,296.082377,6365.771101,-75996.673402
218.578923,740.205942,7254.018232,-75230.577904
218.581447,-1924.535449,14804.118840,-77988.521696
218.583972,1628.453072,11695.253884,-79061.055394
218.586496,1036.288319,10362.883188,-77375.645298
218.589021,-2664.741391,-740.205942,-77988.521696
218.591545,888.247130,592.164754,-78448.178995
218.594070,-148.041188,-6217.729913,-75996.673402
218.596594,-592.164754,-12879.583391,-80593.246390
218.599119,-888.247130,5329.482782,-76456.330700
218.601643,888.247130,7254.018232,-73391.948708
218.604168,-2368.659014,-296.082377,-76456.330700
218.606692,-1776.494261,15396.283594,-80440.027290
218.609217,740.205942,7698.141797,-81359.341888
218.611741,-2368.659014,7994.224174,-81052.903688
218.614266,-444.123565,4589.276840,-81818.999186
218.616790,1628.453072,2812.782580,-78141.740796
218.619315,-2072.576638,1036.288319,-78754.617194
218.621839,-296.082377,-2812.782580,-80440.027290
218.624364,1776.494261,-9622.677246,-77682.083497
218.626888,-1036.288319,-16136.489536,-79061.055394
218.629413,-4145.153275,-13619.789333,-78294.959896
218.631937,1924.535449,-13915.871710,-78294.959896
218.634462,-148.041188,-7846.182985,-78448.178995
218.636986,-3404.947333,-5773.606348,-81206.122788
218.639511,-296.082377,6809.894666,-79061.055394
218.642035,740.205942,-6661.853478,-79061.055394
218.644560,-2072.576638,444.123565,-78448.178995
218.647084,1924.535449,-7994.224174,-78907.836294
218.649609,888.247130,-10214.842000,-75077.358804
218.652133,-1628.453072,-11399.171507,-76915.987999
218.654657,-2368.659014,-11843.295072,-78141.740796
218.657182,-592.164754,-13175.665768,-76456.330700
218.659706,-1628.453072,-9474.636058,-76303.111601
218.662231,740.205942,-7994.224174,-77835.302597
218.664755,444.123565,-8142.265362,-77835.302597
218.667280,-1036.288319,-7994.224174,-78754.617194
218.669804,0.000000,5773.606348,-76456.330700
218.672329,1628.453072,10807.006753,-77375.645298
218.674853,-2812.782580,14359.995275,-79214.274493
218.677383,740.205942,13323.706956,-79214.274493
218.679918,-888.247130,8882.471304,-76609.549800
218.682454,296.082377,-2220.617826,-76915.987999
218.684989,-1924.535449,-3404.947333,-77682.083497
218.687524,1776.494261,-6217.729913,-76915.987999
218.690059,0.000000,-1184.329507,-76762.768900
218.692594,-1480.411884,-592.164754,-80593.246390
218.695130,0.000000,2960.823768,-79367.493593
218.697665,-296.082377,6513.812290,-78448.178995
218.700200,-1184.329507,8142.265362,-80133.589091
218.702735,1480.411884,13619.789333,-80286.808190
218.705270,-3256.906145,4145.153275,-80133.589091
218.707806,148.041188,7994.224174,-79673.931792
218.710341,1628.453072,-740.205942,-77222.426198
218.712876,-888.247130,5033.400406,-76762.768900
218.715411,-1924.535449,-7846.182985,-78448.178995
218.717946,1628.453072,-9770.718434,-78448.178995
218.720481,-888.247130,-14359.995275,-77835.302597
218.723017,-4589.276840,-17468.860231,-80440.027290
218.725552,1628.453072,-11843.295072,-78448.178995
218.728087,1628.453072,-10658.965565,-77682.083497
218.730622,-3404.947333,-2664.741391,-79673.931792
218.733157,1924.535449,4441.235652,-78448.178995
218.735693,-444.123565,-3108.864956,-79061.055394
218.738228,-592.164754,-3256.906145,-76456.330700
218.740763,-1184.329507,-6661.853478,-77069.207099
218.743298,592.164754,-10510.924376,-77222.426198
218.745833,-2072.576638,-13471.748144,-77682.083497
218.748369,-740.205942,-11991.336260,-76303.111601
218.750904,592.164754,-11991.336260,-75996.673402
218.753439,-1036.288319,-9770.718434,-77528.864398
218.755974,1036.288319,-3997.112087,-77835.302597
218.758509,2516.700203,-8882.471304,-79980.369991
218.761045,-1332.370696,-5625.565159,-78294.959896
218.763580,-1628.453072,7698.141797,-78754.617194
218.766115,592.164754,10362.883188,-77069.207099
218.768650,-2220.617826,15692.365970,-77988.521696
218.771185,444.123565,12139.377449,-78907.836294
218.773721,148.041188,9326.594869,-75996.673402
218.776256,-1332.370696,-3256.906145,-75996.673402
218.778800,-888.247130,-444.123565,-79827.150892
218.781344,1628.453072,-5773.606348,-80593.246390
218.783889,-1776.494261,-1628.453072,-78754.617194
218.786433,-1776.494261,4441.235652,-77222.426198
218.788977,0.000000,7550.100608,-75843.454302
218.791521,-592.164754,6661.853478,-75996.673402
218.794066,-1332.370696,8586.388927,-78141.740796
218.796610,1332.370696,11695.253884,-79061.055394
218.799154,444.123565,5625.565159,-76303.111601
218.801698,-1924.535449,0.000000,-77682.083497
218.804243,-1480.411884,3701.029710,-78448.178995
218.806787,-296.082377,-1332.370696,-76915.987999
218.809331,-2072.576638,-12879.583391,-78448.178995
218.811875,-592.164754,-10658.965565,-79520.712692
218.814420,-2220.617826,-18949.272115,-78754.617194
218.816964,-1332.370696,-15544.324782,-77682.083497
218.819508,0.000000,-12287.418637,-77682.083497
218.822052,3256.906145,-5033.400406,-78754.617194
218.824597,-148.041188,-1924.535449,-79061.055394
218.827141,-1924.535449,5477.523971,-79827.150892
218.829685,296.082377,-5477.523971,-81512.560987
218.832229,-888.247130,-5625.565159,-78907.836294
218.834774,-740.205942,-9770.718434,-81359.341888
218.837318,1924.535449,-10066.800811,-78907.836294
218.839862,-2368.659014,-17024.736666,-79061.055394
218.842406,-444.123565,-9030.512492,-80593.246390
218.844951,1628.453072,-6217.729913,-76609.549800
218.847495,740.205942,-7105.977043,-77222.426198
218.850039,-1776.494261,-6365.771101,-79061.055394
218.852583,1776.494261,-4293.194464,-78294.959896
218.855128,-592.164754,5033.400406,-76762.768900
218.857672,-3849.070898,7698.141797,-79673.931792
218.860191,1480.411884,18949.272115,-79367.493593
218.862710,1480.411884,9770.718434,-79061.055394
218.865229,-2072.576638,12731.542202,-79827.150892
218.867749,-444.123565,1332.370696,-75537.016103
218.870268,1036.288319,-6809.894666,-75383.797003
218.872787,-592.164754,-7105.977043,-76915.987999
218.875306,-1480.411884,5921.647536,-77682.083497
218.877825,148.041188,-8734.430116,-78601.398095
218.880344,-2072.576638,10658.965565,-74464.482406
218.882864,-2072.576638,4293.194464,-76915.987999
218.885383,-740.205942,13323.706956,-76762.768900
218.887902,-1924.535449,8290.306550,-80286.808190
218.890421,148.041188,8290.306550,-81206.122788
218.892940,0.000000,1332.370696,-77222.426198
218.895460,-1036.288319,148.041188,-77069.207099
218.897979,-740.205942,2960.823768,-77375.645298
218.900498,1332.370696,-11843.295072,-78294.959896
218.903017,-2368.659014,-13323.706956,-78448.178995
218.905536,-740.205942,-17320.819043,-78907.836294
218.908055,740.205942,-13619.789333,-76303.111601
218.910575,1628.453072,-15692.365970,-78754.617194
218.913094,-296.082377,148.041188,-79061.055394
218.915613,1924.535449,592.164754,-78754.617194
218.918132,-740.205942,-3404.947333,-78754.617194
218.920651,-1480.411884,3108.864956,-80899.684589
218.923171,-296.082377,-4885.359217,-80746.465489
218.925690,-148.041188,-8438.347739,-79061.055394
218.928209,-592.164754,-12435.459826,-80133.589091
218.930728,592.164754,-9474.636058,-76609.549800
218.933247,0.000000,-17616.901420,-76609.549800
218.935766,-1776.494261,-8142.265362,-77682.083497
218.938286,2220.617826,-5921.647536,-79214.274493
218.940805,888.247130,-6513.812290,-77988.521696
218.943324,-2516.700203,-8142.265362,-79673.931792
218.945843,444.123565,7402.059420,-77682.083497
218.948362,-1184.329507,7402.059420,-78754.617194
218.950882,-1628.453072,18505.148550,-80133.589091
218.953401,740.205942,13767.830521,-77835.302597
218.955920,740.205942,7846.182985,-74770.920605
218.958439,-2220.617826,-3404.947333,-76149.892501
218.960971,-2812.782580,-592.164754,-75537.016103
218.963502,1924.535449,-3849.070898,-77835.302597
218.966034,-2368.659014,-5921.647536,-78907.836294
218.968565,-1184.329507,5625.565159,-76609.549800
218.971097,1332.370696,-148.041188,-76609.549800
218.973629,-4145.153275,7550.100608,-78294.959896
218.976160,-1924.535449,10066.800811,-80746.465489
218.978692,4441.235652,11843.295072,-79061.055394
218.981223,-3404.947333,4145.153275,-79520.712692
218.983755,888.247130,7402.059420,-77835.302597
218.986287,-1924.535449,-296.082377,-76609.549800
218.988818,1036.288319,148.041188,-78141.740796
218.991350,-1776.494261,-9770.718434,-79673.931792
218.993881,1480.411884,-12435.459826,-77682.083497
218.996413,-2960.823768,-18801.230927,-79520.712692
218.998944,-740.205942,-13471.748144,-81206.122788
219.001476,148.041188,-9918.759623,-78601.398095
219.004008,3256.906145,-3256.906145,-78754.617194
219.006539,-2220.617826,0.000000,-79520.712692
219.009071,1036.288319,2960.823768,-79061.055394
219.011602,-3108.864956,-888.247130,-78907.836294
219.014134,-296.082377,-12139.377449,-81972.218286
219.016666,592.164754,-2960.823768,-77682.083497
219.019197,1480.411884,-14211.954086,-74924.139704
219.021729,-3108.864956,-14211.954086,-77222.426198
219.024260,1184.329507,-11103.089130,-76915.987999
219.026792,592.164754,-8882.471304,-77069.207099
219.029323,-1924.535449,-8290.306550,-78907.836294
219.031855,1480.411884,-4885.359217,-79061.055394
219.034387,-2072.576638,-7550.100608,-77682.083497
219.036918,-2220.617826,5625.565159,-78907.836294
219.039450,-1332.370696,12583.501014,-78294.959896
219.041981,2368.659014,17172.777854,-76915.987999
219.044513,-1628.453072,8586.388927,-78448.178995
219.047045,444.123565,9030.512492,-77375.645298
219.049576,-888.247130,-1924.535449,-75230.577904
219.052108,-1480.411884,-3849.070898,-76149.892501
219.054639,-740.205942,-2960.823768,-78601.398095
219.057171,296.082377,-4293.194464,-77375.645298
219.059702,-1480.411884,3997.112087,-76456.330700
219.062244,-2072.576638,8290.306550,-78294.959896
219.064786,2664.741391,6365.771101,-79214.274493
219.067329,-3256.906145,11695.253884,-78754.617194
219.069871,1480.411884,8882.471304,-81818.999186
219.072413,444.123565,7846.182985,-76456.330700
219.074955,-444.123565,-888.247130,-77835.302597
219.077497,-2220.617826,5033.400406,-78448.178995
219.080039,1332.370696,-4293.194464,-76762.768900
219.082581,-148.041188,-10658.965565,-78907.836294
219.085123,-3404.947333,-17320.819043,-80440.027290
219.087665,-1480.411884,-14804.118840,-78448.178995
219.090207,2072.576638,-14656.077652,-78601.398095
219.092749,-2220.617826,-8290.306550,-80440.027290
219.095291,2812.782580,-1776.494261,-78754.617194
219.097833,-888.247130,-296.082377,-79520.712692
219.100375,-1924.535449,3404.947333,-79214.274493
219.102917,-1776.494261,-5625.565159,-77528.864398
219.105459,1776.494261,-6365.771101,-74770.920605
219.108001,-1924.535449,-10807.006753,-78141.740796
219.110543,1036.288319,-13619.789333,-77682.083497
219.113085,-592.164754,-18209.066173,-76915.987999
219.115627,-592.164754,-11695.253884,-78448.178995
219.118169,888.247130,-5329.482782,-76456.330700
219.120711,1332.370696,-6365.771101,-77375.645298
219.123253,-1776.494261,-6957.935855,-78754.617194
219.125795,-2664.741391,3997.112087,-79061.055394
219.128337,-1776.494261,8586.388927,-77069.207099
219.130879,-1628.453072,12879.583391,-77682.083497
219.133421,592.164754,15100.201217,-79827.150892
219.135963,-148.041188,9178.553681,-75843.454302
219.138505,-1628.453072,1036.288319,-76456.330700
219.141047,-2812.782580,-1036.288319,-75996.673402
219.143589,1776.494261,-5773.606348,-76609.549800
219.146131,-296.082377,1036.288319,-79061.055394
219.148673,-1332.370696,296.082377,-81512.560987
219.151215,0.000000,9474.636058,-78448.178995
219.153757,-3849.070898,1480.411884,-79673.931792
219.156299,-1776.494261,14804.118840,-80746.465489
219.158841,2812.782580,9326.594869,-80133.589091
219.161383,-1628.453072,7550.100608,-79214.274493
219.163933,-888.247130,5329.482782,-78907.836294
219.166483,592.164754,2960.823768,-76456.330700
219.169033,-444.123565,-1332.370696,-74924.139704
219.171583,-444.123565,-13027.624579,-80133.589091
219.174134,1036.288319,-9918.759623,-79061.055394
219.176684,-2368.659014,-20577.725188,-78907.836294
219.179234,-4145.153275,-12731.542202,-79673.931792
219.181784,2220.617826,-12139.377449,-79061.055394
