#time,accel_x,accel_y,accel_z
1600.240422,1628.453072,-2368.659014,-79367.493593
1600.242937,-296.082377,-6661.853478,-80899.684589
1600.245451,-148.041188,-4441.235652,-78754.617194
1600.247966,-1480.411884,-5477.523971,-78754.617194
1600.250480,-740.205942,-3404.947333,-79061.055394
1600.252995,0.000000,-9326.594869,-78907.836294
1600.255509,-1036.288319,-5329.482782,-79980.369991
1600.258024,444.123565,-3849.070898,-78754.617194
1600.260538,0.000000,-2516.700203,-80133.589091
1600.263053,592.164754,1036.288319,-77222.426198
1600.265567,-1924.535449,-3701.029710,-80746.465489
1600.268082,-148.041188,-2220.617826,-77835.302597
1600.270596,-888.247130,-6661.853478,-79520.712692
1600.273111,888.247130,-1776.494261,-79214.274493
1600.275626,-2072.576638,-444.123565,-79827.150892
1600.278140,-296.082377,5921.647536,-78907.836294
1600.280655,-444.123565,5921.647536,-79367.493593
1600.283169,740.205942,7846.182985,-78141.740796
1600.285730,148.041188,296.082377,-79061.055394
1600.288290,1628.453072,148.041188,-78448.178995
1600.290851,-1628.453072,-3108.864956,-79061.055394
1600.293412,592.164754,-3701.029710,-81512.560987
1600.295973,0.000000,-1480.411884,-79980.369991
1600.298533,296.082377,2516.700203,-77835.302597
1600.301094,-888.247130,2516.700203,-79827.150892
1600.303655,-740.205942,11547.212695,-77069.207099
1600.306215,296.082377,-888.247130,-80133.589091
1600.308776,1332.370696,1036.288319,-80593.246390
1600.311337,-592.164754,-8290.306550,-77988.521696
1600.313898,444.123565,3997.112087,-78448.178995
1600.316458,-740.205942,592.164754,-78141.740796
1600.319019,0.000000,3997.112087,-79827.150892
1600.321580,-1332.370696,5625.565159,-78907.836294
1600.324140,296.082377,4885.359217,-80133.589091
1600.326701,-592.164754,4441.235652,-77682.083497
1600.329262,1480.411884,2516.700203,-80286.808190
1600.331823,-592.164754,444.123565,-77835.302597
1600.334383,444.123565,-740.205942,-79980.369991
1600.336944,-296.082377,-1776.494261,-80133.589091
1600.339505,0.000000,-2072.576638,-78907.836294
1600.342065,-592.164754,2960.823768,-80899.684589
1600.344626,148.041188,4737.318029,-79214.274493
1600.347187,-444.123565,5477.523971,-79367.493593
1600.349748,740.205942,1480.411884,-79214.274493
1600.352308,-1924.535449,1628.453072,-77988.521696
1600.354869,1184.329507,3552.988522,-78754.617194
1600.357430,-592.164754,-2368.659014,-78601.398095
1600.359991,592.164754,-13027.624579,-80133.589091
1600.362551,-296.082377,-11843.295072,-78907.836294
1600.365112,-148.041188,-7698.141797,-78601.398095
1600.367673,-1480.411884,-6365.771101,-79980.369991
1600.370233,592.164754,148.041188,-79061.055394
1600.372794,592.164754,-148.041188,-79367.493593
1600.375355,-888.247130,1776.494261,-78141.740796
1600.377916,-444.123565,-1332.370696,-79061.055394
1600.380476,-296.082377,-5773.606348,-79827.150892
1600.383037,296.082377,-9622.677246,-79214.274493
1600.385598,-148.041188,-7402.059420,-77988.521696
1600.388186,-444.123565,-8142.265362,-79520.712692
1600.390774,-592.164754,-3701.029710,-78907.836294
1600.393363,592.164754,-1776.494261,-80133.589091
1600.395951,-296.082377,-296.082377,-79214.274493
1600.398539,-592.164754,2516.700203,-80440.027290
1600.401128,-740.205942,-8142.265362,-81052.903688
1600.403716,592.164754,5625.565159,-76915.987999
1600.406305,296.082377,-16580.613101,-80746.465489
1600.408893,592.164754,6069.688724,-76303.111601
1600.411481,-1036.288319,-8734.430116,-79367.493593
1600.414070,-1036.288319,-1480.411884,-81818.999186
1600.416658,148.041188,-3108.864956,-77835.302597
1600.419246,0.000000,-7994.224174,-79520.712692
1600.421835,0.000000,-3849.070898,-77375.645298
1600.424423,-1480.411884,-4589.276840,-79214.274493
1600.427011,-888.247130,-7698.141797,-79061.055394
1600.429600,592.164754,-9178.553681,-80746.465489
1600.432188,0.000000,-3849.070898,-78448.178995
1600.434776,-444.123565,-4293.194464,-79520.712692
1600.437365,-1628.453072,1184.329507,-78294.959896
1600.439953,-148.041188,-2812.782580,-78754.617194
1600.442541,0.000000,-3552.988522,-80286.808190
1600.445130,-592.164754,-5921.647536,-78754.617194
1600.447718,-888.247130,-5477.523971,-79673.931792
1600.450307,-740.205942,-2516.700203,-79061.055394
1600.452895,2516.700203,-3849.070898,-79061.055394
1600.455483,-444.123565,-7402.059420,-79673.931792
1600.458072,-1036.288319,148.041188,-79367.493593
1600.460660,740.205942,4589.276840,-79367.493593
1600.463248,-296.082377,7105.977043,-78907.836294
1600.465837,740.205942,4885.359217,-79061.055394
1600.468425,0.000000,3552.988522,-79673.931792
1600.471013,-592.164754,2516.700203,-78448.178995
1600.473602,296.082377,-1184.329507,-78294.959896
1600.476190,592.164754,-4737.318029,-78601.398095
1600.478778,-592.164754,-2072.576638,-80133.589091
1600.481367,0.000000,592.164754,-77988.521696
1600.483955,-888.247130,4293.194464,-78448.178995
1600.486544,296.082377,4293.194464,-77835.302597
1600.489132,740.205942,5477.523971,-79061.055394
1600.491735,-1036.288319,1776.494261,-79520.712692
1600.494340,-1184.329507,3108.864956,-80440.027290
1600.496945,0.000000,-3849.070898,-77835.302597
1600.499550,-592.164754,-5773.606348,-80593.246390
1600.502155,-888.247130,3108.864956,-79520.712692
1600.504760,-740.205942,2664.741391,-77222.426198
1600.507365,740.205942,888.247130,-79214.274493
1600.509970,-296.082377,0.000000,-81206.122788
1600.512575,444.123565,444.123565,-78141.740796
1600.515180,-1184.329507,592.164754,-78448.178995
1600.517785,296.082377,6069.688724,-77528.864398
1600.520390,-2516.700203,3108.864956,-78907.836294
1600.522995,2516.700203,3849.070898,-78294.959896
1600.525601,-740.205942,740.205942,-80440.027290
1600.528206,296.082377,2664.741391,-78754.617194
1600.530811,-148.041188,-1184.329507,-79520.712692
1600.533416,-296.082377,1628.453072,-78754.617194
1600.536021,0.000000,-1776.494261,-81359.341888
1600.538626,296.082377,4589.276840,-78448.178995
1600.541231,0.000000,1924.535449,-77988.521696
1600.543836,-444.123565,1332.370696,-79367.493593
1600.546441,-444.123565,2516.700203,-79367.493593
1600.549046,-444.123565,1332.370696,-79827.150892
1600.551651,296.082377,4441.235652,-79367.493593
1600.554256,1628.453072,-1036.288319,-79367.493593
1600.556861,1036.288319,-8142.265362,-78448.178995
1600.559466,-2220.617826,-14211.954086,-80593.246390
1600.562071,-592.164754,-6365.771101,-78141.740796
1600.564676,-1480.411884,-8734.430116,-79827.150892
1600.567281,740.205942,-2072.576638,-78907.836294
1600.569887,-296.082377,-1776.494261,-79214.274493
1600.572492,-1480.411884,3849.070898,-77835.302597
1600.575097,-444.123565,-1924.535449,-78448.178995
1600.577702,-148.041188,-2960.823768,-78448.178995
1600.580307,444.123565,-7698.141797,-79673.931792
1600.582912,-1184.329507,-6365.771101,-79673.931792
1600.585517,-3404.947333,-7254.018232,-79673.931792
1600.588122,3108.864956,-6217.729913,-78601.398095
1600.590727,-148.041188,-7550.100608,-79367.493593
1600.593332,444.123565,1628.453072,-79214.274493
1600.595945,-1776.494261,-5181.441594,-79673.931792
1600.598557,-1332.370696,2812.782580,-77069.207099
1600.601170,888.247130,-148.041188,-78141.740796
1600.603782,296.082377,-12287.418637,-80899.684589
1600.606395,444.123565,1776.494261,-77682.083497
1600.609008,-296.082377,-6661.853478,-78601.398095
1600.611620,592.164754,-4737.318029,-80746.465489
1600.614233,-148.041188,-2664.741391,-79214.274493
1600.616845,-1332.370696,-4293.194464,-80286.808190
1600.619458,-1036.288319,-6957.935855,-80440.027290
1600.622071,-296.082377,-5181.441594,-77069.207099
1600.624683,148.041188,-5329.482782,-79673.931792
1600.627296,-444.123565,-5625.565159,-79367.493593
1600.629908,-1480.411884,-2368.659014,-79673.931792
1600.632521,-444.123565,-3849.070898,-78754.617194
1600.635134,148.041188,-3552.988522,-79673.931792
1600.637746,740.205942,-5329.482782,-79827.150892
1600.640359,-296.082377,-1480.411884,-80286.808190
1600.642971,-1332.370696,-4441.235652,-78907.836294
1600.645584,-148.041188,-888.247130,-77988.521696
1600.648197,444.123565,-8734.430116,-79214.274493
1600.650809,-888.247130,-5773.606348,-79673.931792
1600.653422,-740.205942,1036.288319,-78601.398095
1600.656034,888.247130,9770.718434,-78754.617194
1600.658647,296.082377,3701.029710,-80133.589091
1600.661260,-148.041188,7105.977043,-80286.808190
1600.663872,-1628.453072,3256.906145,-78448.178995
1600.666485,-1184.329507,1924.535449,-78448.178995
1600.669097,1036.288319,-3849.070898,-78601.398095
1600.671710,1036.288319,-1628.453072,-80593.246390
1600.674323,-888.247130,-2664.741391,-79214.274493
1600.676935,-740.205942,2812.782580,-78141.740796
1600.679548,-148.041188,5477.523971,-78907.836294
1600.682160,-1036.288319,4885.359217,-80440.027290
1600.684773,2516.700203,3404.947333,-79367.493593
1600.687386,-1776.494261,740.205942,-77375.645298
1600.689998,-1036.288319,2368.659014,-78141.740796
1600.692611,-740.205942,-444.123565,-81359.341888
1600.695223,296.082377,-8586.388927,-80899.684589
1600.697836,-1628.453072,4885.359217,-81665.780087
1600.700450,-1628.453072,-2072.576638,-80899.684589
1600.703063,-1036.288319,0.000000,-81665.780087
1600.705677,1628.453072,6069.688724,-75537.016103
1600.708290,1480.411884,0.000000,-78448.178995
1600.710904,-1036.288319,2812.782580,-76303.111601
1600.713517,-148.041188,2516.700203,-80899.684589
1600.716130,-740.205942,4737.318029,-81052.903688
1600.718744,-592.164754,-2960.823768,-79673.931792
1600.721357,0.000000,2812.782580,-79520.712692
1600.723971,-444.123565,0.000000,-79980.369991
1600.726584,-148.041188,2072.576638,-79980.369991
1600.729198,-888.247130,592.164754,-80440.027290
1600.731811,1036.288319,5033.400406,-77222.426198
1600.734425,-296.082377,1924.535449,-78448.178995
1600.737038,592.164754,888.247130,-78294.959896
1600.739652,-740.205942,-740.205942,-78754.617194
1600.742265,-444.123565,3997.112087,-78294.959896
1600.744879,-888.247130,2220.617826,-79367.493593
1600.747492,1628.453072,-6513.812290,-81052.903688
1600.750106,148.041188,-10510.924376,-79214.274493
1600.752719,-740.205942,-11991.336260,-78601.398095
1600.755333,-2072.576638,-7105.977043,-77682.083497
1600.757946,444.123565,-5625.565159,-78601.398095
1600.760560,296.082377,-1776.494261,-80286.808190
1600.763173,-888.247130,444.123565,-78754.617194
1600.765787,-888.247130,148.041188,-78448.178995
1600.768400,148.041188,-1924.535449,-77988.521696
1600.771014,-444.123565,-5329.482782,-79367.493593
1600.773627,888.247130,-8438.347739,-81359.341888
1600.776241,-1628.453072,-7994.224174,-79367.493593
1600.778854,296.082377,-7698.141797,-78601.398095
1600.781468,1628.453072,-5625.565159,-78907.836294
1600.784081,1036.288319,-2368.659014,-78448.178995
1600.786695,-1480.411884,1628.453072,-78448.178995
1600.789308,-1332.370696,-1036.288319,-79214.274493
1600.791922,-1036.288319,-3997.112087,-80746.465489
1600.794535,1036.288319,592.164754,-78754.617194
1600.797149,1776.494261,-5773.606348,-79827.150892
1600.799762,-1480.411884,-5477.523971,-79827.150892
1600.802376,-1776.494261,-2664.741391,-78448.178995
1600.804989,-888.247130,-9178.553681,-78907.836294
1600.807602,296.082377,-4441.235652,-79214.274493
1600.810215,740.205942,-9178.553681,-78754.617194
1600.812828,-444.123565,-3997.112087,-78907.836294
1600.815441,-592.164754,-6957.935855,-78907.836294
1600.818054,444.123565,-444.123565,-79061.055394
1600.820667,444.123565,-2960.823768,-79367.493593
1600.823280,-1184.329507,-2072.576638,-78601.398095
1600.825893,-592.164754,-7550.100608,-79367.493593
1600.828506,-592.164754,-4145.153275,-78601.398095
1600.831119,-592.164754,-6217.729913,-80440.027290
1600.833732,-888.247130,296.082377,-78754.617194
1600.836345,888.247130,-7550.100608,-79980.369991
1600.838958,-740.205942,-7254.018232,-77988.521696
1600.841571,-888.247130,1776.494261,-78141.740796
1600.844184,296.082377,8734.430116,-79214.274493
1600.846797,444.123565,7698.141797,-79061.055394
1600.849409,-296.082377,6957.935855,-79520.712692
1600.852022,-888.247130,2960.823768,-79673.931792
1600.854635,-888.247130,-148.041188,-78601.398095
1600.857248,148.041188,-2664.741391,-79214.274493
1600.859861,1628.453072,-2220.617826,-78601.398095
1600.862474,-888.247130,-1036.288319,-80286.808190
1600.865087,-148.041188,2664.741391,-77682.083497
1600.867700,-444.123565,5033.400406,-78448.178995
1600.870313,2516.700203,4737.318029,-78754.617194
1600.872926,-444.123565,4293.194464,-81512.560987
1600.875539,592.164754,2072.576638,-79673.931792
1600.878152,-2220.617826,-3849.070898,-78754.617194
1600.880765,1332.370696,4737.318029,-75996.673402
1600.883378,1924.535449,-2664.741391,-77835.302597
1600.885991,148.041188,-296.082377,-78907.836294
1600.888604,-1184.329507,1480.411884,-78448.178995
1600.891217,-444.123565,1924.535449,-79061.055394
1600.893830,-296.082377,1332.370696,-80899.684589
1600.896443,0.000000,5329.482782,-80593.246390
1600.899056,296.082377,2812.782580,-78294.959896
1600.901669,-148.041188,5033.400406,-77835.302597
1600.904282,-740.205942,1332.370696,-79827.150892
1600.906895,888.247130,2072.576638,-79520.712692
1600.909507,296.082377,740.205942,-78754.617194
1600.912119,-296.082377,592.164754,-78294.959896
1600.914731,-592.164754,1184.329507,-79061.055394
1600.917343,-444.123565,3404.947333,-80440.027290
1600.919955,444.123565,2516.700203,-79673.931792
1600.922567,444.123565,2220.617826,-78754.617194
1600.925180,-1924.535449,1480.411884,-77988.521696
1600.927792,1036.288319,3404.947333,-79367.493593
1600.930404,296.082377,-296.082377,-79367.493593
1600.933016,1036.288319,-7550.100608,-79980.369991
1600.935628,-740.205942,-13175.665768,-78907.836294
1600.938240,-592.164754,-7550.100608,-78294.959896
1600.940852,-888.247130,-8734.430116,-79827.150892
1600.943464,-296.082377,-3108.864956,-78294.959896
1600.946076,296.082377,-1184.329507,-78907.836294
1600.948688,-1184.329507,3108.864956,-77528.864398
1600.951300,-444.123565,-740.205942,-78448.178995
1600.953912,-1628.453072,-4441.235652,-79673.931792
1600.956524,2220.617826,-6661.853478,-78448.178995
1600.959136,-592.164754,-9770.718434,-80899.684589
1600.961749,-1628.453072,-9474.636058,-78448.178995
1600.964361,-888.247130,-8290.306550,-79214.274493
1600.966973,148.041188,-592.164754,-77835.302597
1600.969585,444.123565,296.082377,-79367.493593
1600.972197,-888.247130,-2812.782580,-80133.589091
1600.974809,-296.082377,-1480.411884,-79827.150892
1600.977421,740.205942,-2368.659014,-77835.302597
1600.980033,1628.453072,-444.123565,-78448.178995
1600.982645,-1036.288319,-7846.182985,-80133.589091
1600.985257,0.000000,-6809.894666,-79673.931792
1600.987869,-2072.576638,-10362.883188,-78754.617194
1600.990481,1628.453072,-6661.853478,-78754.617194
1600.993093,-1480.411884,-7550.100608,-79827.150892
1600.995705,-296.082377,-3997.112087,-80286.808190
1600.998317,-1628.453072,-5033.400406,-79061.055394
1601.000930,444.123565,-2960.823768,-78294.959896
1601.003542,-888.247130,-2516.700203,-79061.055394
1601.006154,1036.288319,-4885.359217,-79827.150892
1601.008766,-1480.411884,-4441.235652,-77682.083497
1601.011378,0.000000,-4441.235652,-77988.521696
1601.013986,-888.247130,-2368.659014,-78601.398095
1601.016594,1332.370696,-5181.441594,-80440.027290
1601.019202,-1036.288319,-8142.265362,-80593.246390
1601.021810,444.123565,-1332.370696,-79367.493593
1601.024418,-2368.659014,4293.194464,-77835.302597
1601.027026,444.123565,10362.883188,-79520.712692
1601.029634,-444.123565,6217.729913,-79827.150892
1601.032242,-296.082377,4737.318029,-78907.836294
1601.034850,-444.123565,2220.617826,-77835.302597
1601.037458,148.041188,-592.164754,-78754.617194
1601.040066,-888.247130,-3404.947333,-80286.808190
1601.042674,-592.164754,-3404.947333,-80286.808190
1601.045282,-888.247130,2072.576638,-78907.836294
1601.047890,-444.123565,1776.494261,-79061.055394
1601.050498,-1776.494261,6365.771101,-78907.836294
1601.053106,1628.453072,6069.688724,-79520.712692
1601.055714,-888.247130,5773.606348,-79980.369991
1601.058322,-1036.288319,-4145.153275,-79061.055394
1601.060930,740.205942,4589.276840,-77528.864398
1601.063538,296.082377,-8438.347739,-80593.246390
1601.066146,-888.247130,-1036.288319,-78754.617194
1601.068754,-740.205942,592.164754,-78448.178995
1601.071362,-296.082377,6661.853478,-79520.712692
1601.073970,-296.082377,3552.988522,-79367.493593
1601.076578,-148.041188,4589.276840,-77375.645298
1601.079186,1036.288319,5329.482782,-80899.684589
1601.081794,-740.205942,2368.659014,-79520.712692
1601.084403,-1480.411884,888.247130,-80746.465489
1601.087011,-148.041188,1036.288319,-78448.178995
1601.089619,296.082377,888.247130,-78294.959896
1601.092227,-740.205942,0.000000,-80899.684589
1601.094835,592.164754,3849.070898,-76762.768900
1601.097443,-1628.453072,2368.659014,-80133.589091
1601.100051,444.123565,3108.864956,-77835.302597
1601.102659,-1036.288319,0.000000,-80286.808190
1601.105267,-592.164754,3997.112087,-77835.302597
1601.107875,592.164754,2960.823768,-79673.931792
1601.110483,148.041188,-3256.906145,-79214.274493
1601.113091,-1776.494261,-10362.883188,-79980.369991
1601.115699,-1480.411884,-11547.212695,-78754.617194
1601.118303,0.000000,-6661.853478,-79520.712692
1601.120907,-148.041188,-9178.553681,-80286.808190
1601.123512,740.205942,-1628.453072,-79214.274493
1601.126116,-444.123565,148.041188,-79061.055394
1601.128720,-1036.288319,1480.411884,-79367.493593
1601.131325,-444.123565,-740.205942,-78448.178995
1601.133929,740.205942,-7402.059420,-79827.150892
1601.136533,-148.041188,-5181.441594,-79827.150892
1601.139138,-1628.453072,-12435.459826,-80133.589091
1601.141742,444.123565,-3404.947333,-78907.836294
1601.144346,-148.041188,-8438.347739,-77835.302597
1601.146951,1480.411884,2072.576638,-78601.398095
1601.149555,-1036.288319,-5773.606348,-80440.027290
1601.152159,-888.247130,2664.741391,-79214.274493
1601.154764,888.247130,-4441.235652,-79061.055394
1601.157368,-2664.741391,-1480.411884,-78754.617194
1601.159972,3997.112087,-7254.018232,-79061.055394
1601.162577,-4441.235652,-6069.688724,-78448.178995
1601.165181,2220.617826,-9326.594869,-79214.274493
1601.167785,-2516.700203,-6365.771101,-80746.465489
1601.170389,2812.782580,-7402.059420,-77375.645298
1601.172994,-444.123565,-3404.947333,-80899.684589
1601.175598,1184.329507,-1924.535449,-77682.083497
1601.178202,-2516.700203,-3256.906145,-78294.959896
1601.180807,2220.617826,-3404.947333,-79214.274493
1601.183411,-1036.288319,-6513.812290,-79980.369991
1601.186015,-444.123565,-4145.153275,-79520.712692
1601.188620,-592.164754,-3701.029710,-78754.617194
1601.191224,-888.247130,-1036.288319,-78294.959896
1601.193828,-296.082377,-6661.853478,-79827.150892
1601.196433,-592.164754,-4885.359217,-78907.836294
1601.199037,-1036.288319,444.123565,-78448.178995
1601.201638,-592.164754,7550.100608,-78601.398095
1601.204240,296.082377,7698.141797,-79214.274493
1601.206841,592.164754,6661.853478,-80286.808190
1601.209442,-740.205942,2812.782580,-80746.465489
1601.212044,-1628.453072,2516.700203,-76456.330700
1601.214645,444.123565,-2072.576638,-79673.931792
1601.217246,1184.329507,-3552.988522,-79827.150892
1601.219848,-888.247130,-148.041188,-80286.808190
1601.222449,-1184.329507,2516.700203,-78601.398095
1601.225050,-592.164754,4293.194464,-77835.302597
1601.227652,1332.370696,5921.647536,-79367.493593
1601.230253,148.041188,5033.400406,-78141.740796
1601.232854,-1480.411884,1332.370696,-80899.684589
1601.235456,-444.123565,4145.153275,-76456.330700
1601.238057,0.000000,-5329.482782,-79520.712692
1601.240658,-1924.535449,-3108.864956,-79214.274493
1601.243260,3108.864956,296.082377,-78601.398095
1601.245861,-148.041188,592.164754,-78907.836294
1601.248462,-2072.576638,3701.029710,-79980.369991
1601.251063,444.123565,6365.771101,-81052.903688
1601.253665,592.164754,3256.906145,-78294.959896
1601.256266,592.164754,4293.194464,-80440.027290
1601.258867,-296.082377,2368.659014,-78907.836294
1601.261469,-1184.329507,1628.453072,-78907.836294
1601.264070,1036.288319,-1184.329507,-78754.617194
1601.266671,-740.205942,148.041188,-79980.369991
1601.269273,1924.535449,3552.988522,-77682.083497
1601.271874,-1480.411884,2368.659014,-79980.369991
1601.274475,-740.205942,1924.535449,-79827.150892
1601.277077,-1036.288319,1480.411884,-80133.589091
1601.279678,444.123565,6809.894666,-78448.178995
1601.282279,1036.288319,1036.288319,-80286.808190
1601.284881,888.247130,-7550.100608,-78907.836294
1601.287482,1332.370696,-12879.583391,-79061.055394
1601.290083,-1036.288319,-10510.924376,-78294.959896
1601.292685,-148.041188,-8734.430116,-79827.150892
1601.295286,148.041188,-7105.977043,-80286.808190
1601.297887,888.247130,-1776.494261,-79214.274493
1601.300489,-2664.741391,1628.453072,-79367.493593
1601.303090,592.164754,1628.453072,-77528.864398
1601.305688,-444.123565,-592.164754,-79214.274493
1601.308285,2220.617826,-8290.306550,-79673.931792
1601.310883,-148.041188,-7105.977043,-79827.150892
1601.313481,-1332.370696,-13027.624579,-78754.617194
1601.316078,-296.082377,-3849.070898,-77682.083497
1601.318676,592.164754,-3701.029710,-78294.959896
1601.321274,1036.288319,-444.123565,-79061.055394
1601.323871,-1924.535449,-1332.370696,-80286.808190
1601.326469,-740.205942,1036.288319,-79673.931792
1601.329067,296.082377,-4293.194464,-80133.589091
1601.331665,-444.123565,-4145.153275,-80133.589091
1601.334262,592.164754,-4145.153275,-77069.207099
1601.336860,-1776.494261,-11103.089130,-78907.836294
1601.339458,1480.411884,-4589.276840,-78907.836294
1601.342055,-2368.659014,-9474.636058,-80133.589091
1601.344653,3404.947333,-1776.494261,-76915.987999
1601.347251,-1480.411884,-4885.359217,-79061.055394
1601.349848,148.041188,-740.205942,-78141.740796
1601.352446,740.205942,-6809.894666,-79061.055394
1601.355044,-888.247130,-4293.194464,-78601.398095
1601.357641,-148.041188,-5181.441594,-78907.836294
1601.360239,-296.082377,-1332.370696,-79367.493593
1601.362837,1924.535449,-7105.977043,-78907.836294
1601.365435,-1480.411884,-6809.894666,-79980.369991
1601.368032,1628.453072,-2812.782580,-79980.369991
1601.370630,-740.205942,7550.100608,-78294.959896
1601.373228,444.123565,9770.718434,-78448.178995
1601.375825,148.041188,6365.771101,-80746.465489
1601.378423,-444.123565,7105.977043,-78294.959896
1601.381021,-1480.411884,2072.576638,-79214.274493
1601.383618,0.000000,-1924.535449,-78141.740796
1601.386216,1036.288319,-4589.276840,-79061.055394
1601.388814,-148.041188,-2664.741391,-79520.712692
1601.391411,444.123565,2220.617826,-79367.493593
1601.394009,-1480.411884,3849.070898,-79061.055394
1601.396607,1332.370696,7402.059420,-78754.617194
1601.399204,-148.041188,4145.153275,-78754.617194
1601.401802,444.123565,1184.329507,-79061.055394
1601.404400,-2368.659014,444.123565,-78754.617194
1601.406998,0.000000,-888.247130,-75843.454302
1601.409590,-296.082377,-8142.265362,-81665.780087
1601.412183,2072.576638,10214.842000,-75690.235202
1601.414776,-3108.864956,-10362.883188,-81818.999186
1601.417368,296.082377,12139.377449,-78294.959896
1601.419961,-888.247130,2072.576638,-80746.465489
1601.422554,1924.535449,9622.677246,-77375.645298
1601.425146,-1036.288319,1776.494261,-80746.465489
1601.427739,-296.082377,4589.276840,-77682.083497
1601.430332,-2812.782580,-740.205942,-79673.931792
1601.432924,296.082377,1036.288319,-78601.398095
1601.435517,148.041188,-888.247130,-79520.712692
1601.438110,1776.494261,2960.823768,-78907.836294
1601.440702,-1628.453072,444.123565,-79673.931792
1601.443295,444.123565,3404.947333,-79214.274493
1601.445888,0.000000,3997.112087,-79214.274493
1601.448480,2072.576638,5625.565159,-79214.274493
1601.451073,-148.041188,-2664.741391,-79520.712692
1601.453666,1332.370696,-9326.594869,-77835.302597
1601.456258,-1628.453072,-14656.077652,-78754.617194
1601.458851,-296.082377,-10362.883188,-78601.398095
1601.461444,-888.247130,-10362.883188,-80286.808190
1601.464036,1184.329507,-2368.659014,-79061.055394
1601.466629,-1480.411884,-592.164754,-79214.274493
1601.469222,-1184.329507,3701.029710,-78601.398095
1601.471814,-888.247130,444.123565,-78294.959896
1601.474407,888.247130,-3404.947333,-79367.493593
1601.477000,296.082377,-8438.347739,-79367.493593
1601.479592,-148.041188,-9622.677246,-79673.931792
1601.482185,-2072.576638,-10807.006753,-79673.931792
1601.484778,0.000000,-5773.606348,-76762.768900
1601.487370,888.247130,4441.235652,-79673.931792
1601.489963,-592.164754,-2960.823768,-79980.369991
1601.492556,-1184.329507,-3701.029710,-81052.903688
1601.495148,148.041188,-592.164754,-77069.207099
1601.497741,444.123565,-3849.070898,-79673.931792
1601.500334,0.000000,-9474.636058,-78448.178995
1601.502926,0.000000,-8882.471304,-78754.617194
1601.505519,-888.247130,-11991.336260,-78294.959896
1601.508112,-296.082377,-4589.276840,-77682.083497
1601.510705,296.082377,-3997.112087,-80133.589091
1601.513290,-148.041188,-2516.700203,-79061.055394
1601.515879,-1184.329507,-1776.494261,-79367.493593
1601.518468,0.000000,-3404.947333,-79367.493593
1601.521057,-2368.659014,-6809.894666,-79367.493593
1601.523647,148.041188,-3552.988522,-79520.712692
1601.526236,-888.247130,-3701.029710,-80286.808190
1601.528825,740.205942,-6217.729913,-79520.712692
1601.531414,-592.164754,-7994.224174,-78754.617194
1601.534003,-592.164754,-444.123565,-79214.274493
1601.536592,-740.205942,6957.935855,-77835.302597
1601.539181,740.205942,11103.089130,-80133.589091
1601.541770,-1184.329507,5477.523971,-79520.712692
1601.544359,592.164754,8882.471304,-78907.836294
1601.546948,-1332.370696,-1184.329507,-80133.589091
1601.549537,444.123565,148.041188,-77222.426198
1601.552126,296.082377,-5921.647536,-80746.465489
1601.554715,-296.082377,-592.164754,-78754.617194
1601.557304,-1480.411884,444.123565,-80593.246390
1601.559893,-444.123565,5329.482782,-77988.521696
1601.562482,0.000000,5773.606348,-79061.055394
1601.565071,1480.411884,4885.359217,-79673.931792
1601.567661,-444.123565,2664.741391,-79827.150892
1601.570250,-1332.370696,3256.906145,-77835.302597
1601.572839,888.247130,-4885.359217,-78601.398095
1601.575428,740.205942,-148.041188,-79061.055394
1601.578017,296.082377,-1628.453072,-78448.178995
1601.580606,-888.247130,1332.370696,-81512.560987
1601.583195,-740.205942,5625.565159,-79061.055394
1601.585784,0.000000,6217.729913,-78754.617194
1601.588373,1628.453072,8142.265362,-79214.274493
1601.590962,-296.082377,2516.700203,-77528.864398
1601.593551,-1480.411884,2960.823768,-76915.987999
1601.596140,-888.247130,-1036.288319,-80286.808190
1601.598729,-296.082377,-592.164754,-79673.931792
1601.601318,2220.617826,-148.041188,-79214.274493
1601.603907,0.000000,592.164754,-79061.055394
1601.606496,-888.247130,2516.700203,-77835.302597
1601.609085,-888.247130,3849.070898,-79673.931792
1601.611675,1332.370696,6365.771101,-78448.178995
1601.614264,1776.494261,-592.164754,-78907.836294
1601.616848,1036.288319,-8586.388927,-78294.959896
1601.619432,-1332.370696,-13767.830521,-79827.150892
1601.622016,-1332.370696,-10807.006753,-77988.521696
1601.624600,-888.247130,-10807.006753,-79367.493593
1601.627184,888.247130,-4145.153275,-78754.617194
1601.629768,1036.288319,-1480.411884,-79673.931792
1601.632353,-1332.370696,3849.070898,-78601.398095
1601.634937,-148.041188,148.041188,-78294.959896
1601.637521,888.247130,-2368.659014,-79827.150892
1601.640105,1036.288319,-7698.141797,-77988.521696
1601.642689,-1332.370696,-10214.842000,-79520.712692
1601.645273,-1184.329507,-9030.512492,-77988.521696
1601.647857,-888.247130,-6661.853478,-80440.027290
1601.650442,1332.370696,-5921.647536,-80286.808190
1601.653026,444.123565,1628.453072,-79980.369991
1601.655610,-1628.453072,-3404.947333,-79980.369991
1601.658194,296.082377,2072.576638,-77682.083497
1601.660778,0.000000,-2516.700203,-79520.712692
1601.663362,740.205942,-7846.182985,-79980.369991
1601.665946,0.000000,-12287.418637,-77375.645298
1601.668531,148.041188,-8586.388927,-77988.521696
1601.671115,-592.164754,-6365.771101,-77375.645298
1601.673699,296.082377,-2812.782580,-77528.864398
1601.676283,740.205942,-3849.070898,-78601.398095
1601.678867,0.000000,-592.164754,-79061.055394
1601.681451,-296.082377,-3997.112087,-79980.369991
1601.684035,-148.041188,-1924.535449,-80133.589091
1601.686620,0.000000,-4145.153275,-78907.836294
1601.689204,-296.082377,-6513.812290,-78754.617194
1601.691788,-888.247130,-10658.965565,-78907.836294
1601.694372,-1184.329507,-3849.070898,-77682.083497
1601.696956,-1184.329507,3108.864956,-79061.055394
1601.699540,1036.288319,11843.295072,-79061.055394
1601.702124,1924.535449,7994.224174,-80286.808190
1601.704708,148.041188,10807.006753,-78448.178995
1601.707293,-1776.494261,2960.823768,-78907.836294
1601.709877,296.082377,2220.617826,-78601.398095
1601.712461,1776.494261,-4885.359217,-79980.369991
1601.715045,1776.494261,-5625.565159,-79673.931792
1601.717629,-1332.370696,-296.082377,-79061.055394
1601.720210,-3256.906145,2516.700203,-79214.274493
1601.722790,1628.453072,9622.677246,-79061.055394
1601.725371,1036.288319,7105.977043,-78907.836294
1601.727952,0.000000,8438.347739,-77682.083497
1601.730532,-1924.535449,740.205942,-80286.808190
1601.733113,-296.082377,-3701.029710,-77528.864398
1601.735693,740.205942,-2220.617826,-78754.617194
1601.738274,444.123565,-6365.771101,-79520.712692
1601.740854,-148.041188,4885.359217,-77835.302597
1601.743435,-2220.617826,3108.864956,-78907.836294
1601.746016,-1036.288319,10658.965565,-78294.959896
1601.748596,444.123565,6365.771101,-79827.150892
1601.751177,1036.288319,6513.812290,-79673.931792
1601.753757,-1480.411884,1480.411884,-79367.493593
1601.756338,-1036.288319,-888.247130,-79367.493593
1601.758918,-148.041188,-2220.617826,-78601.398095
1601.761499,1036.288319,-1036.288319,-77835.302597
1601.764080,888.247130,-1776.494261,-78601.398095
1601.766660,-592.164754,1480.411884,-78294.959896
1601.769241,-444.123565,6513.812290,-79980.369991
1601.771821,-148.041188,4737.318029,-80286.808190
1601.774402,2516.700203,-3552.988522,-78141.740796
1601.776983,-444.123565,-13915.871710,-79520.712692
1601.779563,-444.123565,-11991.336260,-77988.521696
1601.782144,-888.247130,-15248.242405,-80593.246390
1601.784724,444.123565,-6661.853478,-79827.150892
1601.787305,-148.041188,-4589.276840,-80440.027290
1601.789885,-1184.329507,2516.700203,-77528.864398
1601.792466,-1036.288319,2960.823768,-78448.178995
1601.795047,0.000000,592.164754,-80593.246390
1601.797627,1036.288319,-4885.359217,-78601.398095
1601.800208,-148.041188,-10362.883188,-79367.493593
1601.802788,-296.082377,-9622.677246,-78754.617194
1601.805369,-1628.453072,-15100.201217,-82125.437386
1601.807949,-296.082377,-2516.700203,-79214.274493
1601.810530,888.247130,3849.070898,-79520.712692
1601.813111,-740.205942,-1628.453072,-79520.712692
1601.815691,-1036.288319,-5033.400406,-80440.027290
1601.818272,444.123565,-2664.741391,-78907.836294
1601.820852,740.205942,-10658.965565,-79673.931792
1601.823430,0.000000,-7254.018232,-77069.207099
1601.826009,296.082377,-9178.553681,-79061.055394
1601.828587,-1332.370696,-7698.141797,-79214.274493
1601.831165,-740.205942,-9474.636058,-80133.589091
1601.833743,592.164754,-3849.070898,-79367.493593
1601.836321,888.247130,-2664.741391,-79214.274493
1601.838899,-1480.411884,2368.659014,-77988.521696
1601.841477,-296.082377,-148.041188,-79214.274493
1601.844055,-888.247130,-1480.411884,-79520.712692
1601.846633,1332.370696,-13027.624579,-80286.808190
1601.849211,-888.247130,-10362.883188,-77988.521696
1601.851789,-444.123565,-2368.659014,-78448.178995
1601.854368,-592.164754,5773.606348,-79061.055394
1601.856946,1628.453072,11251.130318,-78907.836294
1601.859524,-888.247130,11103.089130,-79980.369991
1601.862102,-148.041188,8142.265362,-78907.836294
1601.864680,-1332.370696,3108.864956,-79061.055394
1601.867258,-296.082377,-1184.329507,-77988.521696
1601.869836,1480.411884,-3404.947333,-78601.398095
1601.872414,-444.123565,-5773.606348,-80133.589091
1601.874992,-888.247130,-1628.453072,-78294.959896
1601.877570,-888.247130,2368.659014,-78601.398095
1601.880148,740.205942,7105.977043,-79673.931792
1601.882726,1184.329507,7402.059420,-80899.684589
1601.885305,148.041188,9030.512492,-77835.302597
1601.887883,-888.247130,-296.082377,-77682.083497
1601.890461,-444.123565,444.123565,-78141.740796
1601.893039,444.123565,-6957.935855,-79520.712692
1601.895617,148.041188,-3849.070898,-81052.903688
1601.898195,-1184.329507,4441.235652,-79214.274493
1601.900773,-1036.288319,4145.153275,-80593.246390
1601.903351,444.123565,10955.047942,-77375.645298
1601.905929,1332.370696,6365.771101,-79061.055394
1601.908507,-148.041188,5625.565159,-78601.398095
1601.911085,-2368.659014,1184.329507,-79367.493593
1601.913664,-888.247130,-296.082377,-80286.808190
1601.916242,-296.082377,-3256.906145,-79673.931792
1601.918820,592.164754,-296.082377,-80133.589091
1601.921398,-1332.370696,-1036.288319,-79061.055394
1601.923976,1036.288319,9918.759623,-77835.302597
1601.926550,148.041188,1184.329507,-80593.246390
1601.929125,888.247130,-1776.494261,-77988.521696
1601.931700,-740.205942,-9918.759623,-81206.122788
1601.934274,-592.164754,-9770.718434,-77682.083497
1601.936849,-2072.576638,-11991.336260,-79367.493593
1601.939423,592.164754,-8734.430116,-79367.493593
1601.941998,-148.041188,-5181.441594,-79214.274493
1601.944573,-888.247130,148.041188,-79214.274493
1601.947147,-592.164754,-148.041188,-77682.083497
1601.949722,-1036.288319,2960.823768,-78601.398095
1601.952296,1924.535449,-3108.864956,-79214.274493
1601.954871,-1628.453072,-9030.512492,-79367.493593
1601.957446,444.123565,-10214.842000,-77835.302597
1601.960020,-1480.411884,-16876.695478,-79367.493593
1601.962595,1036.288319,-2072.576638,-77682.083497
1601.965169,148.041188,-888.247130,-80133.589091
1601.967744,-1036.288319,-1480.411884,-80746.465489
1601.970319,-592.164754,5033.400406,-77835.302597
1601.972893,444.123565,-3701.029710,-79520.712692
1601.975468,296.082377,-6069.688724,-77988.521696
1601.978042,-444.123565,-12287.418637,-78294.959896
1601.980617,-1036.288319,-11843.295072,-78294.959896
1601.983192,0.000000,-8142.265362,-78448.178995
1601.985766,-1184.329507,-8882.471304,-79214.274493
1601.988341,1924.535449,-1332.370696,-78448.178995
1601.990915,-296.082377,-3404.947333,-79827.150892
1601.993490,0.000000,3404.947333,-77682.083497
1601.996065,-1036.288319,148.041188,-78601.398095
1601.998639,1628.453072,-4293.194464,-80133.589091
1602.001214,-296.082377,-11103.089130,-78448.178995
1602.003788,-296.082377,-3256.906145,-77682.083497
1602.006363,-1184.329507,740.205942,-78294.959896
1602.008938,-296.082377,6957.935855,-79827.150892
1602.011512,1184.329507,9326.594869,-79367.493593
1602.014087,0.000000,11695.253884,-79827.150892
1602.016661,-1184.329507,6365.771101,-77835.302597
1602.019236,-148.041188,1480.411884,-79214.274493
1602.021811,0.000000,-3849.070898,-79673.931792
1602.024385,148.041188,-5033.400406,-81206.122788
1602.026960,-740.205942,-3552.988522,-79980.369991
1602.029532,444.123565,3404.947333,-78294.959896
1602.032104,-592.164754,2664.741391,-77682.083497
1602.034676,1036.288319,10362.883188,-77682.083497
1602.037248,-592.164754,7550.100608,-79980.369991
1602.039820,-148.041188,1480.411884,-79980.369991
1602.042393,-1480.411884,-7105.977043,-81052.903688
1602.044965,1628.453072,2368.659014,-76762.768900
1602.047537,-296.082377,-2516.700203,-78754.617194
1602.050109,-1776.494261,2368.659014,-78294.959896
1602.052681,-1184.329507,3404.947333,-81206.122788
1602.055253,-148.041188,6217.729913,-80593.246390
1602.057826,740.205942,6217.729913,-77988.521696
1602.060398,592.164754,5329.482782,-79520.712692
1602.062970,-296.082377,3404.947333,-78141.740796
1602.065542,-2072.576638,2812.782580,-79520.712692
1602.068114,-1332.370696,-4441.235652,-79673.931792
1602.070686,148.041188,-2368.659014,-79673.931792
1602.073258,-1036.288319,-1480.411884,-78448.178995
1602.075831,-296.082377,7254.018232,-78907.836294
1602.078403,-148.041188,296.082377,-78754.617194
1602.080975,740.205942,-4145.153275,-79520.712692
1602.083547,-2220.617826,-9770.718434,-79673.931792
1602.086119,-740.205942,-8734.430116,-78141.740796
1602.088691,-740.205942,-12879.583391,-78907.836294
1602.091263,1184.329507,-5181.441594,-79520.712692
1602.093836,-592.164754,-4885.359217,-79367.493593
1602.096408,-592.164754,1184.329507,-78754.617194
1602.098980,-1036.288319,-740.205942,-78448.178995
1602.101552,-148.041188,-3108.864956,-79673.931792
1602.104124,740.205942,-2812.782580,-79827.150892
1602.106696,-592.164754,-9918.759623,-78754.617194
1602.109268,-888.247130,-7402.059420,-76762.768900
1602.111841,148.041188,-9474.636058,-79214.274493
1602.114413,592.164754,-4293.194464,-80593.246390
1602.116985,0.000000,-6513.812290,-80593.246390
1602.119557,296.082377,3108.864956,-77682.083497
1602.122129,-888.247130,444.123565,-77988.521696
1602.124701,888.247130,-6069.688724,-79367.493593
1602.127273,444.123565,-7846.182985,-78141.740796
1602.129846,-592.164754,-12583.501014,-80286.808190
1602.132416,-1628.453072,-8142.265362,-79367.493593
1602.134986,-2072.576638,-7550.100608,-79520.712692
1602.137557,1628.453072,-4737.318029,-79061.055394
1602.140127,296.082377,-3404.947333,-79520.712692
1602.142698,-296.082377,444.123565,-78601.398095
1602.145268,-592.164754,-296.082377,-78294.959896
1602.147839,592.164754,-5181.441594,-79520.712692
1602.150409,1184.329507,-9326.594869,-78754.617194
1602.152979,-148.041188,-1924.535449,-78141.740796
1602.155550,-1332.370696,296.082377,-79214.274493
1602.158120,-592.164754,7550.100608,-79061.055394
1602.160691,148.041188,5329.482782,-80440.027290
1602.163261,-148.041188,6957.935855,-80286.808190
1602.165832,296.082377,5921.647536,-77528.864398
1602.168402,592.164754,2812.782580,-78754.617194
1602.170973,-444.123565,-2516.700203,-79061.055394
1602.173543,888.247130,-3701.029710,-81052.903688
1602.176113,-2368.659014,-2516.700203,-78907.836294
1602.178684,-740.205942,2812.782580,-78601.398095
1602.181254,-444.123565,4737.318029,-78601.398095
1602.183825,1332.370696,8142.265362,-80286.808190
1602.186395,-1776.494261,5033.400406,-78754.617194
1602.188966,-444.123565,-148.041188,-81359.341888
1602.191536,-148.041188,6809.894666,-77528.864398
1602.194106,1036.288319,-4589.276840,-80133.589091
1602.196677,592.164754,1480.411884,-79367.493593
1602.199247,-592.164754,740.205942,-77375.645298
1602.201818,-888.247130,6365.771101,-78448.178995
1602.204388,1036.288319,9326.594869,-77682.083497
1602.206959,444.123565,3256.906145,-78907.836294
1602.209529,2220.617826,5329.482782,-77069.207099
1602.212099,-2812.782580,-296.082377,-80133.589091
1602.214670,-444.123565,-1184.329507,-78294.959896
1602.217240,-592.164754,-2368.659014,-80899.684589
1602.219811,-592.164754,-296.082377,-77682.083497
1602.222381,740.205942,3997.112087,-78907.836294
1602.224952,-296.082377,296.082377,-79214.274493
1602.227522,296.082377,-7994.224174,-79367.493593
1602.230092,-592.164754,-9770.718434,-78448.178995
1602.232663,740.205942,-9474.636058,-79520.712692
1602.235231,-1036.288319,-11547.212695,-79367.493593
1602.237799,444.123565,-5625.565159,-78601.398095
1602.240367,-296.082377,-6217.729913,-80440.027290
1602.242935,-1184.329507,-296.082377,-77682.083497
1602.245502,592.164754,-2072.576638,-78754.617194
1602.248070,-1480.411884,-3552.988522,-78907.836294
1602.250638,888.247130,-2664.741391,-78601.398095
1602.253206,-2516.700203,-8290.306550,-80286.808190
1602.255774,-1184.329507,-7550.100608,-75996.673402
1602.258342,-444.123565,-9622.677246,-79980.369991
1602.260910,1036.288319,-3849.070898,-80440.027290
1602.263478,148.041188,-4589.276840,-80899.684589
1602.266046,-1480.411884,-7698.141797,-79827.150892
1602.268614,-888.247130,-1776.494261,-79367.493593
1602.271182,148.041188,-7994.224174,-80286.808190
1602.273749,-444.123565,-5773.606348,-79827.150892
1602.276317,444.123565,-9770.718434,-78294.959896
1602.278885,-1184.329507,-7550.100608,-78448.178995
1602.281453,-148.041188,-11103.089130,-79061.055394
1602.284021,-1628.453072,-2960.823768,-78754.617194
1602.286589,888.247130,-296.082377,-77988.521696
1602.289157,-1480.411884,1184.329507,-78601.398095
1602.291725,-888.247130,1776.494261,-78141.740796
1602.294293,-1184.329507,-8142.265362,-80746.465489
1602.296861,444.123565,-6513.812290,-79061.055394
1602.299429,444.123565,-1924.535449,-79061.055394
1602.301996,296.082377,5921.647536,-76456.330700
1602.304564,296.082377,6661.853478,-80440.027290
1602.307132,-148.041188,8882.471304,-78754.617194
1602.309700,-592.164754,4885.359217,-79673.931792
1602.312268,-148.041188,3552.988522,-78294.959896
1602.314836,740.205942,444.123565,-78448.178995
1602.317404,-592.164754,-1480.411884,-79827.150892
1602.319972,-148.041188,-1184.329507,-80286.808190
1602.322540,-1628.453072,-148.041188,-79214.274493
1602.325108,740.205942,4145.153275,-77682.083497
1602.327676,740.205942,8438.347739,-79061.055394
1602.330243,0.000000,4589.276840,-80133.589091
1602.332811,296.082377,296.082377,-79520.712692
1602.335379,296.082377,3997.112087,-77682.083497
1602.337946,-1776.494261,-5773.606348,-80593.246390
1602.340512,888.247130,2516.700203,-77988.521696
1602.343079,-296.082377,1924.535449,-79367.493593
1602.345645,-1184.329507,7105.977043,-77835.302597
1602.348212,-1036.288319,7846.182985,-79673.931792
1602.350778,0.000000,8290.306550,-78907.836294
1602.353345,1036.288319,4589.276840,-79061.055394
1602.355911,-740.205942,3108.864956,-79214.274493
1602.358478,-1480.411884,-2072.576638,-79367.493593
1602.361044,-2220.617826,-740.205942,-79061.055394
1602.363610,444.123565,-3256.906145,-79673.931792
1602.366177,2072.576638,2812.782580,-78754.617194
1602.368743,-148.041188,592.164754,-79827.150892
1602.371310,-1184.329507,-5921.647536,-80593.246390
1602.373876,-1332.370696,-8290.306550,-78907.836294
1602.376443,148.041188,-9326.594869,-77988.521696
1602.379009,1036.288319,-9474.636058,-78141.740796
1602.381576,592.164754,-8438.347739,-80133.589091
1602.384142,-444.123565,-5625.565159,-79214.274493
1602.386709,0.000000,-1480.411884,-78448.178995
1602.389275,-1776.494261,-2664.741391,-78907.836294
1602.391842,1036.288319,-2220.617826,-78754.617194
1602.394408,-1036.288319,-3404.947333,-79673.931792
1602.396975,-444.123565,-5773.606348,-79520.712692
1602.399541,-2220.617826,-5181.441594,-77069.207099
1602.402108,296.082377,-10658.965565,-79214.274493
1602.404674,740.205942,-6661.853478,-78754.617194
1602.407241,1036.288319,2072.576638,-76609.549800
1602.409807,-1184.329507,-3997.112087,-80133.589091
1602.412374,-592.164754,-3256.906145,-79980.369991
1602.414940,1776.494261,-6957.935855,-78294.959896
1602.417506,-296.082377,-7402.059420,-79673.931792
1602.420023,296.082377,-7698.141797,-78754.617194
1602.422539,-1776.494261,-8142.265362,-79827.150892
1602.425055,1184.329507,-7402.059420,-77835.302597
1602.427571,-1184.329507,-5477.523971,-81665.780087
1602.430087,1036.288319,-1036.288319,-78448.178995
1602.432604,-444.123565,-1480.411884,-79520.712692
1602.435120,-740.205942,-2664.741391,-78448.178995
1602.437636,-296.082377,-7105.977043,-79367.493593
1602.440152,592.164754,-740.205942,-78448.178995
1602.442668,296.082377,444.123565,-78907.836294
1602.445185,-888.247130,7254.018232,-78448.178995
1602.447701,-444.123565,5921.647536,-79214.274493
1602.450217,-592.164754,5181.441594,-80746.465489
1602.452733,-296.082377,5625.565159,-77222.426198
1602.455249,592.164754,148.041188,-80440.027290
1602.457765,-148.041188,444.123565,-78754.617194
1602.460282,-444.123565,-2664.741391,-80899.684589
1602.462798,-1036.288319,1628.453072,-79061.055394
1602.465314,-444.123565,740.205942,-78754.617194
1602.467830,0.000000,1924.535449,-80746.465489
1602.470346,1036.288319,5181.441594,-78601.398095
1602.472863,-148.041188,5625.565159,-78141.740796
1602.475379,-1332.370696,-740.205942,-79214.274493
1602.477895,-148.041188,-592.164754,-79980.369991
1602.480411,1332.370696,592.164754,-79980.369991
1602.482927,148.041188,-296.082377,-78294.959896
1602.485443,-296.082377,7105.977043,-78601.398095
1602.487960,-888.247130,7994.224174,-78754.617194
1602.490476,-1332.370696,6069.688724,-78907.836294
1602.492992,1628.453072,5181.441594,-79520.712692
1602.495508,592.164754,3552.988522,-78907.836294
1602.498024,-592.164754,-1332.370696,-78448.178995
1602.500541,-1924.535449,-888.247130,-79061.055394
1602.503057,-2220.617826,-2516.700203,-79520.712692
1602.505573,1924.535449,3108.864956,-78907.836294
1602.508089,444.123565,-148.041188,-79980.369991
1602.510605,-740.205942,-4885.359217,-78448.178995
1602.513121,-2072.576638,-8290.306550,-79214.274493
1602.515638,-444.123565,-8438.347739,-79214.274493
1602.518154,148.041188,-9622.677246,-79980.369991
1602.520680,296.082377,-6069.688724,-79061.055394
1602.523206,888.247130,-4737.318029,-79520.712692
1602.525733,-592.164754,-1776.494261,-78601.398095
1602.528259,592.164754,-1776.494261,-78601.398095
1602.530785,1184.329507,-2516.700203,-79520.712692
1602.533311,0.000000,-8586.388927,-78294.959896
1602.535837,-1036.288319,-8438.347739,-79367.493593
1602.538364,-740.205942,-2368.659014,-79980.369991
1602.540890,0.000000,-8290.306550,-78294.959896
1602.543416,444.123565,-10955.047942,-78907.836294
1602.545942,1184.329507,888.247130,-75843.454302
1602.548469,-592.164754,-4737.318029,-76456.330700
1602.550995,-148.041188,-5477.523971,-77988.521696
1602.553521,888.247130,-5329.482782,-79367.493593
1602.556047,-592.164754,-11251.130318,-80286.808190
1602.558574,0.000000,-7994.224174,-79061.055394
1602.561100,-1332.370696,-7698.141797,-78601.398095
1602.563626,0.000000,-7105.977043,-80133.589091
1602.566152,0.000000,-4293.194464,-79367.493593
1602.568679,-148.041188,-1776.494261,-79520.712692
1602.571205,444.123565,148.041188,-78907.836294
1602.573731,888.247130,-5477.523971,-78448.178995
1602.576257,-2516.700203,-3849.070898,-79980.369991
1602.578783,-1184.329507,592.164754,-79367.493593
1602.581310,740.205942,4589.276840,-78601.398095
1602.583836,592.164754,6513.812290,-77988.521696
1602.586362,-740.205942,6809.894666,-78448.178995
1602.588888,296.082377,4589.276840,-79367.493593
1602.591415,148.041188,4589.276840,-77682.083497
1602.593941,592.164754,0.000000,-79061.055394
1602.596467,592.164754,-444.123565,-79673.931792
1602.598993,888.247130,-2368.659014,-79367.493593
1602.601520,-2072.576638,0.000000,-78601.398095
1602.604046,-148.041188,2220.617826,-79367.493593
1602.606572,148.041188,9030.512492,-79367.493593
1602.609098,148.041188,3108.864956,-79061.055394
1602.611625,-888.247130,444.123565,-79673.931792
1602.614151,-888.247130,-888.247130,-79520.712692
1602.616677,296.082377,2368.659014,-78907.836294
1602.619203,444.123565,592.164754,-78294.959896
1602.621738,296.082377,7698.141797,-78294.959896
1602.624273,-2516.700203,4589.276840,-78907.836294
1602.626808,-2516.700203,7550.100608,-80593.246390
1602.629343,444.123565,3997.112087,-79367.493593
1602.631878,444.123565,3997.112087,-79980.369991
1602.634413,-2368.659014,-1332.370696,-77682.083497
1602.636948,-740.205942,1036.288319,-78448.178995
1602.639483,-2220.617826,-1628.453072,-78601.398095
1602.642018,1480.411884,3256.906145,-79214.274493
1602.644553,888.247130,-1480.411884,-79520.712692
1602.647088,444.123565,-7105.977043,-78907.836294
1602.649622,-2812.782580,-9474.636058,-79827.150892
1602.652157,1036.288319,-9326.594869,-77988.521696
1602.654692,1332.370696,-9326.594869,-80286.808190
1602.657227,296.082377,-5921.647536,-79827.150892
1602.659762,-148.041188,-5329.482782,-78754.617194
1602.662297,-296.082377,-148.041188,-77222.426198
1602.664832,-444.123565,-2220.617826,-78601.398095
1602.667367,1924.535449,-5033.400406,-79673.931792
1602.669902,-1184.329507,-5329.482782,-80440.027290
1602.672437,-2664.741391,-4441.235652,-78907.836294
1602.674972,-1184.329507,-12435.459826,-81972.218286
1602.677507,-888.247130,-2072.576638,-79367.493593
1602.680042,1776.494261,-1036.288319,-77682.083497
1602.682577,-2220.617826,-10214.842000,-80440.027290
1602.685112,-888.247130,1332.370696,-77375.645298
1602.687646,-1332.370696,-8290.306550,-81512.560987
1602.690181,1184.329507,-3701.029710,-78448.178995
1602.692716,-1480.411884,-10214.842000,-79520.712692
1602.695251,888.247130,-6069.688724,-79214.274493
1602.697786,-1480.411884,-9622.677246,-79520.712692
1602.700321,2220.617826,-4885.359217,-79980.369991
1602.702856,592.164754,-4441.235652,-79673.931792
1602.705391,444.123565,2072.576638,-79061.055394
1602.707926,-296.082377,-3849.070898,-78907.836294
1602.710461,-444.123565,-5477.523971,-79520.712692
1602.712996,-1332.370696,888.247130,-79520.712692
1602.715531,1184.329507,4293.194464,-78907.836294
1602.718066,-444.123565,8290.306550,-78448.178995
1602.720601,-296.082377,5033.400406,-79673.931792
1602.723142,-1924.535449,7550.100608,-78448.178995
1602.725683,740.205942,2072.576638,-79061.055394
1602.728224,-148.041188,2368.659014,-78448.178995
1602.730765,0.000000,-740.205942,-79520.712692
1602.733306,-1036.288319,296.082377,-79673.931792
1602.735848,-740.205942,-888.247130,-78601.398095
1602.738389,-888.247130,2220.617826,-78294.959896
1602.740930,2220.617826,11399.171507,-79214.274493
1602.743471,-592.164754,1628.453072,-79673.931792
1602.746012,-592.164754,-888.247130,-80899.684589
1602.748553,-740.205942,2664.741391,-78448.178995
1602.751095,1184.329507,1184.329507,-79061.055394
1602.753636,296.082377,-296.082377,-80133.589091
1602.756177,-296.082377,5625.565159,-77682.083497
1602.758718,-888.247130,4885.359217,-80133.589091
1602.761259,-444.123565,6957.935855,-79061.055394
1602.763800,1036.288319,5625.565159,-79673.931792
1602.766342,1036.288319,5181.441594,-78754.617194
1602.768883,-1480.411884,-2072.576638,-78294.959896
1602.771424,-1036.288319,-296.082377,-78601.398095
1602.773965,148.041188,-1332.370696,-79061.055394
1602.776506,740.205942,2664.741391,-78754.617194
1602.779047,1776.494261,-4145.153275,-79827.150892
1602.781589,-740.205942,-6513.812290,-77375.645298
1602.784130,-1776.494261,-9918.759623,-79061.055394
1602.786671,-1924.535449,-8142.265362,-77988.521696
1602.789212,1628.453072,-11103.089130,-79827.150892
1602.791753,-296.082377,-4885.359217,-79827.150892
1602.794294,-1480.411884,-3404.947333,-78754.617194
1602.796836,-2368.659014,1184.329507,-78448.178995
1602.799377,740.205942,-4885.359217,-79367.493593
1602.801918,148.041188,-444.123565,-78448.178995
1602.804459,444.123565,-10066.800811,-80286.808190
1602.807000,-1628.453072,-2072.576638,-75537.016103
1602.809541,-148.041188,-11547.212695,-80593.246390
1602.812083,-1480.411884,-10955.047942,-80440.027290
1602.814624,2072.576638,1924.535449,-76915.987999
1602.817165,-888.247130,-7698.141797,-80746.465489
1602.819706,-2072.576638,592.164754,-79827.150892
1602.822247,-2664.741391,-10807.006753,-78601.398095
1602.824749,740.205942,-5921.647536,-78907.836294
1602.827251,1036.288319,-11991.336260,-78294.959896
1602.829753,1480.411884,-4145.153275,-78448.178995
1602.832254,-3108.864956,-8734.430116,-78907.836294
1602.834756,-148.041188,148.041188,-78141.740796
1602.837258,444.123565,-3701.029710,-79827.150892
1602.839760,888.247130,888.247130,-78294.959896
1602.842262,-444.123565,-7254.018232,-79214.274493
1602.844763,-592.164754,0.000000,-77528.864398
1602.847265,-1036.288319,740.205942,-79827.150892
1602.849767,1628.453072,5477.523971,-79520.712692
1602.852269,1332.370696,6217.729913,-78754.617194
1602.854771,-888.247130,7550.100608,-78448.178995
1602.857273,-444.123565,3701.029710,-77682.083497
1602.859774,-1036.288319,1480.411884,-80133.589091
1602.862276,1628.453072,1184.329507,-78754.617194
1602.864778,888.247130,-2960.823768,-81206.122788
1602.867280,148.041188,5181.441594,-77528.864398
1602.869782,-2220.617826,-888.247130,-79980.369991
1602.872283,-444.123565,9326.594869,-78141.740796
1602.874785,1924.535449,1184.329507,-79980.369991
1602.877287,-148.041188,-2220.617826,-80286.808190
1602.879789,-148.041188,12583.501014,-75690.235202
1602.882291,-2220.617826,-7105.977043,-81972.218286
1602.884792,740.205942,6661.853478,-77988.521696
1602.887294,-444.123565,-888.247130,-78601.398095
1602.889796,740.205942,10510.924376,-77528.864398
1602.892298,-2516.700203,3552.988522,-80593.246390
1602.894800,296.082377,11103.089130,-79061.055394
1602.897301,0.000000,444.123565,-79520.712692
1602.899803,1036.288319,2220.617826,-78294.959896
1602.902305,-740.205942,-1924.535449,-78294.959896
1602.904807,-888.247130,1480.411884,-78754.617194
1602.907309,-592.164754,1628.453072,-79673.931792
1602.909811,296.082377,-740.205942,-79673.931792
1602.912312,444.123565,-6809.894666,-78294.959896
1602.914814,-1332.370696,-12139.377449,-79367.493593
1602.917316,-888.247130,-9326.594869,-78448.178995
1602.919818,0.000000,-10214.842000,-81206.122788
1602.922320,296.082377,-3701.029710,-79214.274493
1602.924836,-296.082377,-2960.823768,-79367.493593
1602.927352,-2368.659014,-740.205942,-78601.398095
1602.929868,-2664.741391,-3997.112087,-78141.740796
1602.932384,1184.329507,-6661.853478,-79520.712692
1602.934900,148.041188,-9770.718434,-79673.931792
1602.937416,-148.041188,-8142.265362,-78601.398095
1602.939932,-1776.494261,-3404.947333,-78294.959896
1602.942448,-888.247130,-6809.894666,-79673.931792
1602.944964,444.123565,-1480.411884,-79673.931792
1602.947480,888.247130,-5625.565159,-79980.369991
1602.949996,-1036.288319,-592.164754,-79367.493593
1602.952512,-148.041188,-8290.306550,-80746.465489
1602.955028,740.205942,-9326.594869,-79061.055394
1602.957545,1776.494261,-10066.800811,-78601.398095
1602.960061,-2368.659014,-8882.471304,-77988.521696
1602.962577,1184.329507,-8734.430116,-80133.589091
1602.965093,-740.205942,-3256.906145,-79673.931792
1602.967609,1480.411884,-592.164754,-79214.274493
1602.970125,1036.288319,148.041188,-78907.836294
1602.972641,888.247130,-3108.864956,-78448.178995
1602.975157,-2516.700203,2664.741391,-77835.302597
1602.977673,592.164754,3552.988522,-80286.808190
1602.980189,148.041188,6661.853478,-79214.274493
1602.982705,1036.288319,5477.523971,-79673.931792
1602.985221,-1924.535449,5477.523971,-78448.178995
1602.987737,-592.164754,3404.947333,-77835.302597
1602.990253,-888.247130,0.000000,-80286.808190
1602.992770,444.123565,888.247130,-79673.931792
1602.995286,296.082377,444.123565,-80286.808190
1602.997802,-1628.453072,1184.329507,-77835.302597
1603.000318,740.205942,7402.059420,-79367.493593
1603.002834,148.041188,-1924.535449,-80133.589091
1603.005350,1036.288319,4145.153275,-80440.027290
1603.007866,-1628.453072,-2072.576638,-77988.521696
1603.010382,296.082377,8142.265362,-77528.864398
1603.012898,592.164754,6217.729913,-77988.521696
1603.015414,148.041188,3701.029710,-79673.931792
1603.017930,0.000000,9474.636058,-77988.521696
1603.020446,-2072.576638,4293.194464,-80286.808190
1603.022962,296.082377,9030.512492,-79061.055394
1603.025491,-740.205942,1184.329507,-80133.589091
1603.028019,-592.164754,1628.453072,-78294.959896
1603.030547,-444.123565,888.247130,-78294.959896
1603.033075,-296.082377,3701.029710,-78601.398095
1603.035603,148.041188,2960.823768,-79214.274493
1603.038131,1924.535449,-5477.523971,-79367.493593
1603.040659,296.082377,-9030.512492,-78601.398095
1603.043187,-1184.329507,-11251.130318,-79673.931792
1603.045716,-740.205942,-9326.594869,-77988.521696
1603.048244,296.082377,-8438.347739,-80899.684589
1603.050772,444.123565,-3997.112087,-78294.959896
1603.053300,-444.123565,-888.247130,-79673.931792
1603.055828,-592.164754,-1036.288319,-77222.426198
1603.058356,-1184.329507,-4293.194464,-78601.398095
1603.060884,740.205942,-2664.741391,-78907.836294
1603.063412,740.205942,-6809.894666,-80746.465489
1603.065941,-2072.576638,-14063.912898,-80133.589091
1603.068469,-888.247130,-2664.741391,-77835.302597
1603.070997,148.041188,-7698.141797,-79061.055394
1603.073525,888.247130,1184.329507,-77682.083497
1603.076053,-740.205942,-296.082377,-79367.493593
1603.078581,-740.205942,-3997.112087,-78294.959896
1603.081109,-148.041188,-10066.800811,-79673.931792
1603.083637,888.247130,-12139.377449,-79520.712692
1603.086166,1184.329507,-9918.759623,-79673.931792
1603.088694,-1776.494261,-9918.759623,-80746.465489
1603.091222,-888.247130,-3108.864956,-77682.083497
1603.093750,0.000000,-1480.411884,-80286.808190
1603.096278,296.082377,-592.164754,-79673.931792
1603.098806,444.123565,-5773.606348,-79367.493593
1603.101334,-1036.288319,-592.164754,-77682.083497
1603.103863,-2368.659014,3552.988522,-78294.959896
1603.106391,740.205942,5329.482782,-79980.369991
1603.108919,-148.041188,7254.018232,-79673.931792
1603.111447,296.082377,4737.318029,-79980.369991
1603.113975,-1036.288319,3404.947333,-77988.521696
1603.116503,-592.164754,1184.329507,-79520.712692
1603.119031,-740.205942,-296.082377,-79520.712692
1603.121559,444.123565,-888.247130,-81052.903688
1603.124088,-148.041188,5921.647536,-78601.398095
1603.126583,-148.041188,5181.441594,-78907.836294
1603.129079,-148.041188,-1332.370696,-78754.617194
1603.131575,592.164754,2072.576638,-80286.808190
1603.134070,296.082377,5033.400406,-77222.426198
1603.136566,-444.123565,3256.906145,-76456.330700
1603.139062,-1628.453072,0.000000,-80286.808190
1603.141557,148.041188,2072.576638,-79367.493593
1603.144053,0.000000,888.247130,-80133.589091
1603.146549,-296.082377,9918.759623,-78141.740796
1603.149045,0.000000,7105.977043,-77682.083497
1603.151540,-592.164754,7550.100608,-79214.274493
1603.154036,592.164754,-1924.535449,-79214.274493
1603.156532,-148.041188,1628.453072,-78754.617194
1603.159027,-1628.453072,-2516.700203,-78754.617194
1603.161523,148.041188,4145.153275,-78907.836294
1603.164019,1036.288319,-1924.535449,-79827.150892
1603.166514,740.205942,-7698.141797,-79980.369991
1603.169010,-1332.370696,-12435.459826,-79520.712692
1603.171506,-1628.453072,-9178.553681,-78907.836294
1603.174001,-888.247130,-10658.965565,-80133.589091
1603.176497,1184.329507,-4145.153275,-80440.027290
1603.178993,-740.205942,-1628.453072,-79061.055394
1603.181489,-1776.494261,-1480.411884,-77682.083497
1603.183984,-1036.288319,-3849.070898,-78907.836294
1603.186480,0.000000,-2960.823768,-78601.398095
1603.188976,444.123565,-6809.894666,-79827.150892
1603.191471,-148.041188,-148.041188,-79520.712692
1603.193967,-4441.235652,-17616.901420,-81512.560987
1603.196463,888.247130,296.082377,-77222.426198
1603.198958,592.164754,-3701.029710,-76149.892501
1603.201454,592.164754,-7402.059420,-80899.684589
1603.203950,-296.082377,-3849.070898,-78294.959896
1603.206445,-444.123565,-9770.718434,-81206.122788
1603.208941,-2664.741391,-8290.306550,-78907.836294
1603.211437,1184.329507,-13471.748144,-78907.836294
1603.213933,-1036.288319,-4885.359217,-79520.712692
1603.216428,-2368.659014,-5921.647536,-79673.931792
1603.218924,740.205942,-740.205942,-80440.027290
1603.221420,1184.329507,-3552.988522,-79827.150892
1603.223915,740.205942,-3997.112087,-78294.959896
1603.226428,-148.041188,148.041188,-78141.740796
1603.228941,-2072.576638,4737.318029,-79061.055394
1603.231453,-888.247130,6217.729913,-78754.617194
1603.233966,2072.576638,5921.647536,-78754.617194
1603.236479,-2072.576638,5921.647536,-78601.398095
1603.238991,0.000000,3849.070898,-78448.178995
1603.241504,-1332.370696,148.041188,-79367.493593
1603.244017,740.205942,-1036.288319,-79367.493593
1603.246529,296.082377,888.247130,-80286.808190
1603.249042,-444.123565,444.123565,-78294.959896
1603.251555,-444.123565,592.164754,-79061.055394
1603.254067,296.082377,5625.565159,-77528.864398
1603.256580,148.041188,3849.070898,-76915.987999
1603.259093,-296.082377,444.123565,-80593.246390
1603.261605,-592.164754,6661.853478,-77222.426198
1603.264118,-444.123565,-1924.535449,-80746.465489
1603.266631,592.164754,3108.864956,-78448.178995
1603.269143,444.123565,3404.947333,-80286.808190
1603.271656,-444.123565,8586.388927,-79061.055394
1603.274169,-444.123565,6957.935855,-78601.398095
1603.276681,0.000000,5773.606348,-79214.274493
1603.279194,-296.082377,148.041188,-77835.302597
1603.281707,-740.205942,0.000000,-78448.178995
1603.284219,-444.123565,740.205942,-78141.740796
1603.286732,148.041188,3108.864956,-79214.274493
1603.289244,1036.288319,-8142.265362,-80286.808190
1603.291757,592.164754,-8734.430116,-78141.740796
1603.294270,-1480.411884,-11843.295072,-78294.959896
1603.296782,-592.164754,-8290.306550,-79214.274493
1603.299295,444.123565,-9474.636058,-80440.027290
1603.301808,592.164754,-1332.370696,-78601.398095
1603.304320,-148.041188,-1924.535449,-79673.931792
1603.306833,-1776.494261,2368.659014,-76915.987999
1603.309346,-1184.329507,-2960.823768,-80133.589091
1603.311858,740.205942,-7698.141797,-79367.493593
1603.314371,148.041188,-3404.947333,-77375.645298
1603.316884,-1628.453072,-11843.295072,-80899.684589
1603.319396,-1776.494261,-7846.182985,-78294.959896
1603.321909,1332.370696,-6661.853478,-80746.465489
1603.324422,296.082377,-1184.329507,-76915.987999
1603.326949,-1184.329507,-3404.947333,-78601.398095
1603.329476,-1776.494261,-3256.906145,-79214.274493
1603.332003,888.247130,-12435.459826,-79214.274493
1603.334530,1036.288319,-10510.924376,-79673.931792
1603.337057,444.123565,-11695.253884,-79214.274493
1603.339584,-2220.617826,-2960.823768,-79061.055394
1603.342111,-148.041188,-2220.617826,-77988.521696
1603.344639,1036.288319,-1184.329507,-81359.341888
1603.347166,1776.494261,-5329.482782,-77375.645298
1603.349693,-592.164754,-2220.617826,-79214.274493
1603.352220,-1480.411884,5033.400406,-78448.178995
1603.354747,0.000000,8734.430116,-79673.931792
1603.357274,1184.329507,6957.935855,-80593.246390
1603.359801,740.205942,6809.894666,-78754.617194
1603.362328,-1628.453072,1480.411884,-79214.274493
1603.364855,-1480.411884,888.247130,-77375.645298
1603.367383,444.123565,-2368.659014,-79520.712692
1603.369910,592.164754,0.000000,-79520.712692
1603.372437,-1184.329507,3701.029710,-79673.931792
1603.374964,-1036.288319,6365.771101,-79520.712692
1603.377491,-296.082377,2812.782580,-79827.150892
1603.380018,296.082377,444.123565,-79673.931792
1603.382545,0.000000,5033.400406,-77682.083497
1603.385072,-888.247130,1036.288319,-80286.808190
1603.387599,-296.082377,444.123565,-79367.493593
1603.390126,-296.082377,1924.535449,-79214.274493
1603.392654,0.000000,5181.441594,-77988.521696
1603.395181,-148.041188,9918.759623,-77988.521696
1603.397708,-1332.370696,7402.059420,-78601.398095
1603.400235,1332.370696,5477.523971,-78907.836294
1603.402762,-1480.411884,-1184.329507,-80133.589091
1603.405289,296.082377,148.041188,-78294.959896
1603.407816,-740.205942,0.000000,-79061.055394
1603.410343,1332.370696,740.205942,-79061.055394
1603.412870,0.000000,-10066.800811,-79980.369991
1603.415398,148.041188,-11695.253884,-80286.808190
1603.417925,-1924.535449,-9622.677246,-77069.207099
1603.420452,-148.041188,-8586.388927,-79061.055394
1603.422979,-296.082377,-6957.935855,-79520.712692
1603.425506,592.164754,-888.247130,-80133.589091
1603.428044,444.123565,-1184.329507,-78907.836294
1603.430582,-1480.411884,-3552.988522,-79061.055394
1603.433120,740.205942,-3701.029710,-77835.302597
1603.435658,1480.411884,-6513.812290,-77222.426198
1603.438197,-740.205942,-7550.100608,-78907.836294
1603.440735,-1036.288319,-6365.771101,-79827.150892
1603.443273,-888.247130,-1332.370696,-78907.836294
1603.445811,1332.370696,-8882.471304,-80746.465489
1603.448349,-148.041188,-2220.617826,-78448.178995
1603.450887,0.000000,-7698.141797,-78141.740796
1603.453425,-1628.453072,-9326.594869,-79520.712692
1603.455964,1036.288319,-9770.718434,-77222.426198
1603.458502,1332.370696,-9770.718434,-79061.055394
1603.461040,-1924.535449,-5921.647536,-78294.959896
1603.463578,148.041188,-5477.523971,-81512.560987
1603.466116,-592.164754,-444.123565,-79367.493593
1603.468654,1184.329507,-5477.523971,-80746.465489
1603.471192,592.164754,740.205942,-77375.645298
1603.473730,-1184.329507,4441.235652,-79520.712692
1603.476269,-1184.329507,10362.883188,-77988.521696
1603.478807,2072.576638,5329.482782,-80133.589091
1603.481345,-1036.288319,6365.771101,-78141.740796
1603.483883,296.082377,2664.741391,-78754.617194
1603.486421,-1628.453072,592.164754,-76915.987999
1603.488959,1184.329507,-1480.411884,-79980.369991
1603.491497,148.041188,148.041188,-81206.122788
1603.494035,740.205942,1628.453072,-79673.931792
1603.496574,-2072.576638,2072.576638,-77682.083497
1603.499112,888.247130,9178.553681,-76762.768900
1603.501650,-740.205942,444.123565,-81359.341888
1603.504188,0.000000,3552.988522,-79520.712692
1603.506726,-592.164754,296.082377,-80440.027290
1603.509264,-888.247130,4145.153275,-77682.083497
1603.511802,1036.288319,3108.864956,-78141.740796
1603.514341,740.205942,9474.636058,-77222.426198
1603.516879,1332.370696,5477.523971,-79061.055394
1603.519417,-2072.576638,8882.471304,-78601.398095
1603.521955,592.164754,148.041188,-79367.493593
1603.524493,-592.164754,4441.235652,-78907.836294
1603.527031,148.041188,-296.082377,-78754.617194
1603.529580,-1332.370696,5477.523971,-77835.302597
1603.532128,1332.370696,-6365.771101,-79827.150892
1603.534675,-592.164754,-11695.253884,-79827.150892
1603.537223,296.082377,-14804.118840,-79520.712692
1603.539770,-1776.494261,-10362.883188,-78448.178995
1603.542318,296.082377,-9030.512492,-78907.836294
1603.544865,1628.453072,-3256.906145,-79061.055394
1603.547413,-592.164754,-1924.535449,-80133.589091
1603.549961,-1036.288319,444.123565,-79673.931792
1603.552508,-2516.700203,-1628.453072,-78601.398095
1603.555056,444.123565,-5033.400406,-79673.931792
1603.557603,148.041188,-13915.871710,-80899.684589
1603.560151,-592.164754,-3849.070898,-78907.836294
1603.562698,-1924.535449,-1184.329507,-78448.178995
1603.565246,-1480.411884,-7994.224174,-78754.617194
1603.567793,296.082377,-5625.565159,-79214.274493
1603.570341,1036.288319,-2368.659014,-78601.398095
1603.572888,-2368.659014,-5773.606348,-79061.055394
1603.575436,296.082377,-8586.388927,-78141.740796
1603.577983,1036.288319,-11399.171507,-79980.369991
1603.580531,592.164754,-10066.800811,-77375.645298
1603.583078,-1480.411884,-7550.100608,-79520.712692
1603.585626,-148.041188,-1628.453072,-78141.740796
1603.588173,296.082377,-3256.906145,-79980.369991
1603.590721,3997.112087,-3256.906145,-79367.493593
1603.593268,-1776.494261,4293.194464,-77988.521696
1603.595816,-592.164754,6661.853478,-79061.055394
1603.598363,-1924.535449,9178.553681,-78754.617194
1603.600911,2664.741391,3997.112087,-80746.465489
1603.603458,-1184.329507,7105.977043,-78601.398095
1603.606006,-1036.288319,444.123565,-79061.055394
1603.608553,-2960.823768,1036.288319,-77682.083497
1603.611101,1332.370696,-3404.947333,-79061.055394
1603.613649,444.123565,3108.864956,-80286.808190
1603.616196,-296.082377,4145.153275,-77835.302597
1603.618744,-888.247130,10362.883188,-80286.808190
1603.621291,296.082377,-740.205942,-79980.369991
1603.623839,444.123565,3256.906145,-79980.369991
1603.626386,296.082377,3997.112087,-77528.864398
1603.628934,-1184.329507,1924.535449,-80133.589091
1603.631488,148.041188,888.247130,-78754.617194
1603.634043,-148.041188,4885.359217,-80133.589091
1603.636597,888.247130,6365.771101,-78294.959896
1603.639151,-888.247130,7846.182985,-79673.931792
1603.641706,-740.205942,4145.153275,-79367.493593
1603.644260,592.164754,3256.906145,-79520.712692
1603.646815,-2516.700203,888.247130,-79214.274493
1603.649369,740.205942,1480.411884,-78141.740796
1603.651924,0.000000,-148.041188,-78448.178995
1603.654478,0.000000,-12435.459826,-79367.493593
1603.657033,-592.164754,-11251.130318,-78601.398095
1603.659587,-1184.329507,-12287.418637,-79061.055394
1603.662141,148.041188,-7550.100608,-78448.178995
1603.664696,148.041188,-7550.100608,-79980.369991
1603.667250,444.123565,296.082377,-79520.712692
1603.669805,-592.164754,-1480.411884,-79520.712692
1603.672359,-1036.288319,-444.123565,-77988.521696
1603.674914,-592.164754,-3256.906145,-78448.178995
1603.677468,148.041188,-5625.565159,-79061.055394
1603.680022,-444.123565,-13471.748144,-81972.218286
1603.682577,-2368.659014,-5921.647536,-78907.836294
1603.685131,-740.205942,-7698.141797,-79061.055394
1603.687686,296.082377,-1036.288319,-76149.892501
1603.690240,-296.082377,-6365.771101,-78448.178995
1603.692795,-2368.659014,-2516.700203,-80133.589091
1603.695349,-1628.453072,-13175.665768,-81972.218286
1603.697904,-444.123565,-11251.130318,-79061.055394
1603.700458,1184.329507,-9622.677246,-79214.274493
1603.703012,-740.205942,-4441.235652,-79367.493593
1603.705567,-1332.370696,-2664.741391,-78907.836294
1603.708121,1184.329507,-3701.029710,-79673.931792
1603.710676,1628.453072,-7254.018232,-79673.931792
1603.713230,592.164754,4293.194464,-78141.740796
1603.715785,0.000000,8734.430116,-78294.959896
1603.718339,148.041188,8586.388927,-79673.931792
1603.720894,1332.370696,7254.018232,-78141.740796
1603.723448,0.000000,5033.400406,-79827.150892
1603.726002,-888.247130,1184.329507,-79214.274493
1603.728557,-2220.617826,-1924.535449,-80286.808190
1603.731111,1184.329507,-2960.823768,-78294.959896
1603.733671,1184.329507,2220.617826,-79520.712692
1603.736232,-1332.370696,444.123565,-80286.808190
1603.738792,592.164754,2072.576638,-79214.274493
1603.741352,0.000000,4737.318029,-77375.645298
1603.743912,148.041188,2960.823768,-79673.931792
1603.746472,-1480.411884,4885.359217,-80440.027290
1603.749032,296.082377,1332.370696,-81052.903688
1603.751593,0.000000,296.082377,-77835.302597
1603.754153,0.000000,6957.935855,-77528.864398
1603.756713,-148.041188,7105.977043,-78448.178995
1603.759273,-740.205942,6217.729913,-78294.959896
1603.761833,-296.082377,3701.029710,-78294.959896
1603.764393,1332.370696,888.247130,-78754.617194
1603.766953,-1628.453072,1036.288319,-78448.178995
1603.769514,1924.535449,3849.070898,-78754.617194
1603.772074,-296.082377,-7550.100608,-79827.150892
1603.774634,888.247130,-13323.706956,-78754.617194
1603.777194,-1776.494261,-13027.624579,-79673.931792
1603.779754,0.000000,-11547.212695,-78907.836294
1603.782314,-148.041188,-7254.018232,-79367.493593
1603.784875,592.164754,-4293.194464,-79520.712692
1603.787435,296.082377,1480.411884,-78294.959896
1603.789995,-1036.288319,444.123565,-78294.959896
1603.792555,-148.041188,-296.082377,-79980.369991
1603.795115,0.000000,-5033.400406,-79673.931792
1603.797675,-148.041188,-14508.036463,-80440.027290
1603.800235,-1184.329507,-2664.741391,-79367.493593
1603.802796,-592.164754,-5477.523971,-77682.083497
1603.805356,-1924.535449,-11399.171507,-80133.589091
1603.807916,1036.288319,-1184.329507,-77835.302597
1603.810476,-1924.535449,-5477.523971,-79214.274493
1603.813036,0.000000,-4589.276840,-78448.178995
1603.815563,-444.123565,-10066.800811,-79673.931792
1603.818089,148.041188,-6069.688724,-78754.617194
1603.820616,-1184.329507,-9918.759623,-79827.150892
1603.823143,-1332.370696,-2368.659014,-79827.150892
1603.825669,-148.041188,-6957.935855,-78601.398095
1603.828196,1628.453072,-2960.823768,-79367.493593
1603.830722,-1184.329507,-888.247130,-79214.274493
1603.833249,1628.453072,11251.130318,-78754.617194
1603.835775,-1480.411884,8290.306550,-79520.712692
1603.838302,1036.288319,8290.306550,-78141.740796
1603.840829,1332.370696,4145.153275,-79827.150892
1603.843355,-1036.288319,-296.082377,-78754.617194
1603.845882,-740.205942,-888.247130,-78754.617194
1603.848408,888.247130,-2664.741391,-80286.808190
1603.850935,592.164754,-592.164754,-79367.493593
1603.853461,444.123565,1776.494261,-78754.617194
1603.855988,-1628.453072,10066.800811,-79367.493593
1603.858515,-444.123565,5181.441594,-78294.959896
1603.861041,-1184.329507,444.123565,-81972.218286
1603.863568,-1036.288319,3256.906145,-81512.560987
1603.866094,0.000000,1924.535449,-78754.617194
1603.868621,148.041188,4885.359217,-75996.673402
1603.871147,1036.288319,4145.153275,-78448.178995
1603.873674,-592.164754,5329.482782,-78448.178995
1603.876201,296.082377,4885.359217,-81359.341888
1603.878727,-1480.411884,3108.864956,-78294.959896
1603.881254,-740.205942,2516.700203,-78907.836294
1603.883780,592.164754,3256.906145,-79520.712692
1603.886307,296.082377,1332.370696,-78754.617194
1603.888833,-296.082377,-10807.006753,-79980.369991
1603.891360,-148.041188,-13323.706956,-78448.178995
1603.893886,-1776.494261,-15840.407159,-80286.808190
1603.896413,148.041188,-9918.759623,-78448.178995
1603.898940,-444.123565,-7254.018232,-80286.808190
1603.901466,-444.123565,-148.041188,-78141.740796
1603.903993,-148.041188,1036.288319,-78294.959896
1603.906519,-1036.288319,-148.041188,-78294.959896
1603.909046,-148.041188,-2664.741391,-80746.465489
1603.911572,-296.082377,-12435.459826,-79520.712692
1603.914099,-444.123565,-7698.141797,-77069.207099
1603.916637,296.082377,-1628.453072,-76762.768900
1603.919175,-592.164754,-11547.212695,-78294.959896
1603.921713,444.123565,-5329.482782,-80286.808190
1603.924250,888.247130,-7846.182985,-79520.712692
1603.926788,-444.123565,-3404.947333,-79520.712692
1603.929326,-444.123565,-8882.471304,-78601.398095
1603.931864,888.247130,-5625.565159,-79061.055394
1603.934402,-888.247130,-11399.171507,-79827.150892
1603.936940,-148.041188,-7105.977043,-78907.836294
1603.939478,-1332.370696,-7254.018232,-80593.246390
1603.942016,-444.123565,-5625.565159,-79520.712692
1603.944553,-740.205942,1184.329507,-79673.931792
1603.947091,-888.247130,7698.141797,-79061.055394
1603.949629,-1480.411884,9770.718434,-78601.398095
1603.952167,444.123565,9326.594869,-79673.931792
1603.954705,-1628.453072,5477.523971,-78294.959896
1603.957243,296.082377,5625.565159,-78907.836294
1603.959781,-888.247130,-740.205942,-78294.959896
1603.962318,1628.453072,-2220.617826,-79214.274493
1603.964856,-1036.288319,-4145.153275,-80286.808190
1603.967394,444.123565,1036.288319,-80133.589091
1603.969932,592.164754,9770.718434,-78141.740796
1603.972470,-148.041188,3256.906145,-78448.178995
1603.975008,1184.329507,7698.141797,-78294.959896
1603.977546,-296.082377,-2516.700203,-80133.589091
1603.980083,-148.041188,296.082377,-80286.808190
1603.982621,-740.205942,1776.494261,-79061.055394
1603.985159,740.205942,4441.235652,-78448.178995
1603.987697,-1036.288319,7550.100608,-78907.836294
1603.990235,-888.247130,7402.059420,-79673.931792
1603.992773,-148.041188,5477.523971,-79673.931792
1603.995311,0.000000,1924.535449,-79827.150892
1603.997848,-740.205942,4145.153275,-79980.369991
1604.000386,1480.411884,148.041188,-77682.083497
1604.002924,148.041188,-7105.977043,-78448.178995
1604.005462,-592.164754,-13915.871710,-78448.178995
1604.008000,-1332.370696,-13767.830521,-79520.712692
1604.010538,-444.123565,-13767.830521,-79673.931792
1604.013076,444.123565,-7105.977043,-79061.055394
1604.015613,740.205942,-4293.194464,-79061.055394
1604.018161,148.041188,592.164754,-79367.493593
1604.020708,-1332.370696,740.205942,-78294.959896
1604.023256,-740.205942,-1332.370696,-77682.083497
1604.025803,0.000000,-4885.359217,-79980.369991
1604.028350,592.164754,-14952.160028,-81359.341888
1604.030898,-1924.535449,-9770.718434,-79214.274493
1604.033445,-592.164754,-4885.359217,-76456.330700
1604.035993,-1184.329507,-8438.347739,-79061.055394
1604.038540,444.123565,-4441.235652,-79827.150892
1604.041087,-296.082377,-5921.647536,-79827.150892
1604.043635,-148.041188,-4441.235652,-78601.398095
1604.046182,740.205942,-9918.759623,-79367.493593
1604.048730,-888.247130,-6069.688724,-77835.302597
1604.051277,148.041188,-9178.553681,-80593.246390
1604.053824,-1924.535449,-4737.318029,-79673.931792
1604.056372,1184.329507,-8882.471304,-79367.493593
1604.058919,-444.123565,-1332.370696,-79061.055394
1604.061467,888.247130,7994.224174,-79061.055394
1604.064014,-1184.329507,11103.089130,-78754.617194
1604.066561,592.164754,12731.542202,-77988.521696
1604.069109,-444.123565,7254.018232,-79061.055394
1604.071656,592.164754,4145.153275,-78907.836294
1604.074204,-1776.494261,-1480.411884,-79980.369991
1604.076751,-740.205942,-2812.782580,-78907.836294
1604.079298,-296.082377,-888.247130,-80593.246390
1604.081846,444.123565,4293.194464,-79520.712692
1604.084393,-592.164754,-3404.947333,-79367.493593
1604.086941,740.205942,16876.695478,-77069.207099
1604.089488,-444.123565,2220.617826,-80899.684589
1604.092035,-888.247130,2812.782580,-80746.465489
1604.094583,444.123565,6069.688724,-77835.302597
1604.097130,-888.247130,2220.617826,-80286.808190
1604.099678,1924.535449,5921.647536,-76915.987999
1604.102225,-740.205942,1036.288319,-79827.150892
1604.104772,888.247130,7698.141797,-77375.645298
1604.107320,-2368.659014,2072.576638,-79980.369991
1604.109867,740.205942,6217.729913,-78448.178995
1604.112415,-296.082377,5181.441594,-79214.274493
1604.114962,592.164754,2072.576638,-78907.836294
1604.117509,592.164754,-9474.636058,-79980.369991
1604.120064,148.041188,-14359.995275,-78754.617194
1604.122618,-2368.659014,-16876.695478,-79214.274493
1604.125172,1036.288319,-10658.965565,-79980.369991
1604.127727,-1332.370696,-9178.553681,-80746.465489
1604.130281,1184.329507,888.247130,-79061.055394
1604.132835,-592.164754,444.123565,-78907.836294
1604.135390,-740.205942,1480.411884,-78907.836294
1604.137944,-592.164754,-888.247130,-78754.617194
1604.140498,148.041188,-11695.253884,-79061.055394
1604.143053,0.000000,-10066.800811,-79061.055394
1604.145607,-444.123565,-10362.883188,-78448.178995
1604.148161,296.082377,-3701.029710,-79061.055394
1604.150716,148.041188,-4589.276840,-78601.398095
1604.153270,148.041188,-6365.771101,-79367.493593
1604.155824,2220.617826,-5329.482782,-78754.617194
1604.158379,-2220.617826,-7105.977043,-78754.617194
1604.160933,2072.576638,-10214.842000,-78907.836294
1604.163488,-2220.617826,-6661.853478,-78294.959896
1604.166042,444.123565,-5625.565159,-78294.959896
1604.168596,-1332.370696,-5921.647536,-79827.150892
1604.171151,888.247130,-7846.182985,-79827.150892
1604.173705,-1036.288319,7846.182985,-78907.836294
1604.176259,-148.041188,9178.553681,-78294.959896
1604.178814,-1776.494261,12435.459826,-79673.931792
1604.181368,2072.576638,8586.388927,-78294.959896
1604.183922,-740.205942,6661.853478,-79827.150892
1604.186477,2220.617826,-2072.576638,-78141.740796
1604.189031,-1332.370696,-592.164754,-78907.836294
1604.191585,888.247130,-3552.988522,-78907.836294
1604.194140,592.164754,296.082377,-79214.274493
1604.196694,-296.082377,1924.535449,-79980.369991
1604.199248,-888.247130,3701.029710,-80133.589091
1604.201803,-296.082377,7254.018232,-78754.617194
1604.204357,0.000000,5033.400406,-78601.398095
1604.206911,-1924.535449,4885.359217,-80746.465489
1604.209466,-296.082377,2368.659014,-78907.836294
1604.212020,-444.123565,2220.617826,-79980.369991
1604.214574,444.123565,2812.782580,-77375.645298
1604.217129,444.123565,5921.647536,-79367.493593
1604.219683,148.041188,3849.070898,-78448.178995
1604.222243,-296.082377,4441.235652,-80286.808190
1604.224804,1184.329507,6661.853478,-79214.274493
1604.227364,296.082377,1776.494261,-78294.959896
1604.229924,1480.411884,-8882.471304,-79367.493593
1604.232485,-888.247130,-13915.871710,-78141.740796
1604.235045,-1480.411884,-17616.901420,-79827.150892
1604.237605,-148.041188,-13323.706956,-77835.302597
1604.240166,-1036.288319,-10362.883188,-79827.150892
1604.242726,-444.123565,-3108.864956,-79827.150892
1604.245286,-1628.453072,3404.947333,-79061.055394
1604.247847,-1480.411884,-444.123565,-78294.959896
1604.250407,-888.247130,-1036.288319,-78448.178995
1604.252967,1184.329507,-2220.617826,-77835.302597
1604.255527,444.123565,-10807.006753,-78448.178995
1604.258088,-740.205942,-9030.512492,-80133.589091
1604.260648,592.164754,-10955.047942,-78294.959896
1604.263208,0.000000,-7846.182985,-80593.246390
1604.265769,1036.288319,-8290.306550,-78754.617194
1604.268329,1924.535449,-1924.535449,-76915.987999
1604.270889,444.123565,-5477.523971,-78294.959896
1604.273450,592.164754,-4293.194464,-78294.959896
1604.276010,-888.247130,-8438.347739,-80286.808190
1604.278570,-2220.617826,-7105.977043,-80133.589091
1604.281131,740.205942,-10362.883188,-79214.274493
1604.283691,0.000000,-2960.823768,-80746.465489
1604.286251,-148.041188,9770.718434,-79673.931792
1604.288811,-1184.329507,11843.295072,-79367.493593
1604.291372,0.000000,15692.365970,-77988.521696
1604.293932,-1776.494261,8142.265362,-78907.836294
1604.296492,740.205942,7105.977043,-77988.521696
1604.299053,-740.205942,-2516.700203,-79367.493593
1604.301613,-148.041188,-2072.576638,-79367.493593
1604.304173,-1628.453072,-6957.935855,-79061.055394
1604.306734,296.082377,7550.100608,-78754.617194
1604.309294,-592.164754,-5921.647536,-80899.684589
1604.311854,1036.288319,11991.336260,-79367.493593
1604.314414,148.041188,9918.759623,-76762.768900
1604.316975,444.123565,3404.947333,-80593.246390
1604.319535,-148.041188,7105.977043,-78601.398095
1604.322095,-1480.411884,888.247130,-78754.617194
1604.324661,2368.659014,4589.276840,-77835.302597
1604.327227,-1480.411884,-1480.411884,-77222.426198
1604.329792,-1924.535449,6661.853478,-78141.740796
1604.332358,-1924.535449,444.123565,-80286.808190
1604.334923,444.123565,8142.265362,-79520.712692
1604.337489,444.123565,4145.153275,-78907.836294
1604.340054,592.164754,1332.370696,-78294.959896
1604.342620,-1184.329507,-12731.542202,-78294.959896
1604.345185,0.000000,-14063.912898,-78907.836294
1604.347751,-148.041188,-16284.530724,-79367.493593
1604.350317,740.205942,-11991.336260,-79673.931792
1604.352882,148.041188,-6661.853478,-80286.808190
1604.355448,-888.247130,-296.082377,-79061.055394
1604.358013,-2664.741391,4145.153275,-77528.864398
1604.360579,1036.288319,1776.494261,-79520.712692
1604.363144,-592.164754,-5181.441594,-78907.836294
1604.365710,148.041188,-5477.523971,-77835.302597
1604.368275,-1628.453072,-11991.336260,-79061.055394
1604.370841,888.247130,-5625.565159,-79520.712692
1604.373407,-296.082377,-13175.665768,-78907.836294
1604.375972,0.000000,-6513.812290,-79061.055394
1604.378538,740.205942,-4737.318029,-78294.959896
1604.381103,-1184.329507,-4145.153275,-80286.808190
1604.383669,1332.370696,-6069.688724,-79827.150892
1604.386234,1036.288319,-10066.800811,-80746.465489
1604.388800,-296.082377,-4293.194464,-78141.740796
1604.391365,-740.205942,-10807.006753,-78601.398095
1604.393931,-444.123565,-5921.647536,-79214.274493
1604.396497,148.041188,4145.153275,-79367.493593
1604.399062,148.041188,11399.171507,-79061.055394
1604.401628,0.000000,13175.665768,-78448.178995
1604.404193,-296.082377,9770.718434,-78754.617194
1604.406759,-1184.329507,7402.059420,-78294.959896
1604.409324,-592.164754,296.082377,-78448.178995
1604.411890,0.000000,-2960.823768,-79673.931792
1604.414455,-888.247130,-6957.935855,-78754.617194
1604.417021,-148.041188,-3701.029710,-80593.246390
1604.419587,-592.164754,6513.812290,-77988.521696
1604.422152,296.082377,3108.864956,-79673.931792
1604.424718,740.205942,8438.347739,-78448.178995
1604.427287,148.041188,9474.636058,-78294.959896
1604.429855,-1776.494261,3552.988522,-79827.150892
1604.432424,1036.288319,6069.688724,-80286.808190
1604.434993,2072.576638,740.205942,-79061.055394
1604.437562,0.000000,3552.988522,-78294.959896
1604.440131,-1332.370696,2072.576638,-79367.493593
1604.442700,-1332.370696,4589.276840,-79673.931792
1604.445269,0.000000,3849.070898,-79061.055394
1604.447838,592.164754,6513.812290,-81206.122788
1604.450406,1628.453072,-2368.659014,-78754.617194
1604.452975,-1480.411884,-14804.118840,-79214.274493
1604.455544,-444.123565,-16284.530724,-77835.302597
1604.458113,-1332.370696,-16284.530724,-79520.712692
1604.460682,-1036.288319,-12583.501014,-79520.712692
1604.463251,0.000000,-8290.306550,-80440.027290
1604.465820,592.164754,1628.453072,-78448.178995
1604.468389,-592.164754,5773.606348,-78907.836294
1604.470957,-592.164754,-1628.453072,-79061.055394
1604.473526,888.247130,1332.370696,-77069.207099
1604.476095,-296.082377,-10955.047942,-79980.369991
1604.478664,-1036.288319,-11843.295072,-80133.589091
1604.481233,-3256.906145,-11547.212695,-80593.246390
1604.483802,444.123565,-6809.894666,-77988.521696
1604.486371,888.247130,-7994.224174,-78294.959896
1604.488940,-444.123565,-740.205942,-80746.465489
1604.491508,-1628.453072,-4885.359217,-79214.274493
1604.494077,-740.205942,-4589.276840,-80593.246390
1604.496646,1184.329507,-8290.306550,-78907.836294
1604.499215,-444.123565,-4293.194464,-78754.617194
1604.501784,0.000000,-10658.965565,-78601.398095
1604.504353,-1480.411884,-5329.482782,-80286.808190
1604.506922,0.000000,2516.700203,-79827.150892
1604.509491,592.164754,11251.130318,-80440.027290
1604.512059,-148.041188,14063.912898,-80286.808190
1604.514628,-1036.288319,10362.883188,-79827.150892
1604.517197,-1776.494261,8290.306550,-78448.178995
1604.519766,148.041188,1184.329507,-79061.055394
1604.522335,296.082377,-4145.153275,-78907.836294
1604.524904,-592.164754,-3849.070898,-78141.740796
1604.527473,-1184.329507,1184.329507,-80746.465489
1604.530045,-296.082377,592.164754,-78601.398095
1604.532617,-1036.288319,740.205942,-80899.684589
1604.535189,1776.494261,14359.995275,-77222.426198
1604.537760,-1036.288319,2516.700203,-79673.931792
1604.540332,-740.205942,14508.036463,-79980.369991
1604.542904,444.123565,-148.041188,-80746.465489
1604.545476,-296.082377,5181.441594,-79673.931792
1604.548048,444.123565,-1184.329507,-77835.302597
1604.550620,-1924.535449,5773.606348,-77222.426198
1604.553191,-1776.494261,296.082377,-80133.589091
1604.555763,592.164754,9918.759623,-79520.712692
1604.558335,888.247130,1036.288319,-80133.589091
1604.560907,1184.329507,-5329.482782,-79061.055394
1604.563479,-2516.700203,-15396.283594,-78754.617194
1604.566050,-1184.329507,-12583.501014,-78141.740796
1604.568622,444.123565,-17172.777854,-80133.589091
1604.571194,592.164754,-10658.965565,-79061.055394
1604.573766,-888.247130,-3849.070898,-79214.274493
1604.576338,-444.123565,-444.123565,-78907.836294
1604.578909,-1480.411884,888.247130,-78294.959896
1604.581481,1924.535449,-148.041188,-79980.369991
1604.584053,-296.082377,-2072.576638,-78294.959896
1604.586625,-592.164754,-11695.253884,-81818.999186
1604.589197,-888.247130,-4737.318029,-77069.207099
1604.591769,888.247130,-12731.542202,-81818.999186
1604.594340,-1036.288319,-9178.553681,-77835.302597
1604.596912,1924.535449,-7994.224174,-78294.959896
1604.599484,-444.123565,-4737.318029,-77835.302597
1604.602056,-592.164754,-6513.812290,-78601.398095
1604.604628,-1480.411884,-6957.935855,-79520.712692
1604.607199,888.247130,-3552.988522,-79980.369991
1604.609771,740.205942,-7550.100608,-78601.398095
1604.612343,-1480.411884,-4145.153275,-77835.302597
1604.614915,-592.164754,1924.535449,-79520.712692
1604.617487,-1332.370696,10510.924376,-79980.369991
1604.620058,444.123565,12435.459826,-79367.493593
1604.622630,1036.288319,10510.924376,-78601.398095
1604.625202,-444.123565,7550.100608,-77375.645298
1604.627774,1332.370696,2664.741391,-79367.493593
1604.630346,-1184.329507,444.123565,-78448.178995
1604.632884,1184.329507,-3849.070898,-79673.931792
1604.635423,-1776.494261,-2960.823768,-79367.493593
1604.637961,-296.082377,4441.235652,-78294.959896
1604.640500,444.123565,1776.494261,-79061.055394
1604.643038,592.164754,4885.359217,-79061.055394
1604.645577,296.082377,7402.059420,-78601.398095
1604.648115,-1332.370696,7105.977043,-79214.274493
1604.650654,1184.329507,6217.729913,-80746.465489
1604.653192,0.000000,4145.153275,-78448.178995
1604.655731,740.205942,1036.288319,-79214.274493
1604.658269,-2220.617826,5181.441594,-77835.302597
1604.660808,-740.205942,888.247130,-79520.712692
1604.663346,-1036.288319,5033.400406,-79520.712692
1604.665885,3256.906145,3108.864956,-79520.712692
1604.668423,-740.205942,-5329.482782,-78907.836294
1604.670962,1332.370696,-13175.665768,-77835.302597
1604.673500,-3997.112087,-15988.448347,-78141.740796
1604.676039,888.247130,-12139.377449,-79061.055394
1604.678577,-296.082377,-9326.594869,-80133.589091
1604.681116,444.123565,148.041188,-79520.712692
1604.683654,-2220.617826,-2368.659014,-80133.589091
1604.686192,-148.041188,3256.906145,-76609.549800
1604.688731,-888.247130,-148.041188,-80899.684589
1604.691269,1036.288319,-9622.677246,-80440.027290
1604.693808,-148.041188,-11251.130318,-80899.684589
1604.696346,-2072.576638,-9918.759623,-79214.274493
1604.698885,0.000000,-6217.729913,-77528.864398
1604.701423,1332.370696,-8438.347739,-79520.712692
1604.703962,296.082377,-6365.771101,-78141.740796
1604.706500,-1036.288319,-7105.977043,-79980.369991
1604.709039,-1184.329507,-5329.482782,-78754.617194
1604.711577,740.205942,-6365.771101,-80286.808190
1604.714116,-444.123565,-5625.565159,-78907.836294
1604.716654,740.205942,-7994.224174,-78141.740796
1604.719193,-1628.453072,-3256.906145,-79673.931792
1604.721731,444.123565,3256.906145,-80440.027290
1604.724270,-296.082377,10955.047942,-80899.684589
1604.726808,888.247130,12731.542202,-79520.712692
1604.729347,0.000000,10362.883188,-77375.645298
1604.731885,-888.247130,9030.512492,-78294.959896
1604.734433,-296.082377,-888.247130,-77069.207099
1604.736980,1332.370696,-4885.359217,-79061.055394
1604.739527,-1184.329507,-3256.906145,-79980.369991
1604.742074,-1036.288319,-2516.700203,-80899.684589
1604.744621,296.082377,7846.182985,-77222.426198
1604.747169,1036.288319,-296.082377,-78294.959896
1604.749716,-296.082377,14656.077652,-77682.083497
1604.752263,0.000000,4737.318029,-80746.465489
1604.754810,-1628.453072,7402.059420,-81512.560987
1604.757358,-148.041188,5773.606348,-77835.302597
1604.759905,1628.453072,1776.494261,-79520.712692
1604.762452,-2072.576638,1776.494261,-77528.864398
1604.764999,-1628.453072,148.041188,-79214.274493
1604.767546,-1036.288319,4885.359217,-78754.617194
1604.770094,1776.494261,6365.771101,-79673.931792
1604.772641,1184.329507,1036.288319,-80440.027290
1604.775188,-444.123565,-12435.459826,-77835.302597
1604.777735,-2664.741391,-15396.283594,-79367.493593
1604.780282,888.247130,-15396.283594,-80286.808190
1604.782830,-296.082377,-11991.336260,-79980.369991
1604.785377,1036.288319,-8142.265362,-80593.246390
1604.787924,-1036.288319,1184.329507,-78294.959896
1604.790471,-740.205942,2664.741391,-77222.426198
1604.793019,-296.082377,-296.082377,-78294.959896
1604.795566,592.164754,-2368.659014,-77375.645298
1604.798113,592.164754,-9918.759623,-80593.246390
1604.800660,-888.247130,-3701.029710,-78601.398095
1604.803207,-1332.370696,-10955.047942,-78907.836294
1604.805755,148.041188,-11251.130318,-78907.836294
1604.808302,888.247130,-7846.182985,-79214.274493
1604.810849,-1332.370696,-9474.636058,-79061.055394
1604.813396,-296.082377,-6513.812290,-79827.150892
1604.815944,-148.041188,-5625.565159,-80440.027290
1604.818491,888.247130,-3256.906145,-79980.369991
1604.821038,-444.123565,-8290.306550,-79367.493593
1604.823585,1036.288319,-5477.523971,-77069.207099
1604.826132,-2368.659014,4885.359217,-77375.645298
1604.828680,0.000000,9770.718434,-80133.589091
1604.831227,-1480.411884,12583.501014,-79673.931792
1604.833774,592.164754,9178.553681,-79367.493593
1604.836329,-1332.370696,8290.306550,-77682.083497
1604.838884,148.041188,740.205942,-79367.493593
1604.841438,296.082377,-1480.411884,-79367.493593
1604.843993,592.164754,-2368.659014,-80286.808190
1604.846548,-888.247130,-148.041188,-80746.465489
1604.849103,-444.123565,-1924.535449,-80286.808190
1604.851658,1036.288319,8734.430116,-76609.549800
1604.854212,0.000000,2072.576638,-79980.369991
1604.856767,-444.123565,9030.512492,-78294.959896
1604.859322,-592.164754,7846.182985,-79980.369991
1604.861877,444.123565,8734.430116,-79214.274493
1604.864432,-296.082377,2960.823768,-78907.836294
1604.866986,-296.082377,2664.741391,-78601.398095
1604.869541,-1332.370696,1776.494261,-77375.645298
1604.872096,-1924.535449,3108.864956,-79214.274493
1604.874651,3256.906145,5329.482782,-79214.274493
1604.877206,-888.247130,-1332.370696,-79827.150892
1604.879760,2072.576638,-11991.336260,-77222.426198
1604.882315,-3256.906145,-15544.324782,-79061.055394
1604.884870,-592.164754,-17172.777854,-78294.959896
1604.887425,-740.205942,-10510.924376,-80133.589091
1604.889979,1184.329507,-7994.224174,-79061.055394
1604.892534,-888.247130,148.041188,-77835.302597
1604.895089,-888.247130,-3256.906145,-78448.178995
1604.897644,0.000000,-444.123565,-79061.055394
1604.900199,-592.164754,-6661.853478,-78294.959896
1604.902753,0.000000,-4293.194464,-79214.274493
1604.905308,-296.082377,-6661.853478,-78601.398095
1604.907863,-3108.864956,-9326.594869,-80133.589091
1604.910418,-296.082377,-11843.295072,-80593.246390
1604.912973,592.164754,-9918.759623,-77988.521696
1604.915527,-148.041188,-6365.771101,-78141.740796
1604.918082,-1628.453072,-2960.823768,-78907.836294
1604.920637,0.000000,-3108.864956,-77988.521696
1604.923192,296.082377,-6069.688724,-80746.465489
1604.925747,1332.370696,-8438.347739,-77528.864398
1604.928301,-1036.288319,-6365.771101,-78907.836294
1604.930856,-1776.494261,6217.729913,-77835.302597
1604.933411,-296.082377,8734.430116,-81359.341888
1604.935966,148.041188,13915.871710,-80440.027290
1604.938526,-592.164754,9474.636058,-78907.836294
1604.941086,-444.123565,7698.141797,-78294.959896
1604.943646,444.123565,2220.617826,-78294.959896
1604.946206,-296.082377,-3404.947333,-79214.274493
1604.948766,592.164754,-2812.782580,-80133.589091
1604.951326,-1332.370696,-5477.523971,-80286.808190
1604.953886,-888.247130,3997.112087,-77528.864398
1604.956446,-592.164754,6217.729913,-77528.864398
1604.959006,-592.164754,7698.141797,-77988.521696
1604.961566,-444.123565,11103.089130,-79520.712692
1604.964126,296.082377,7846.182985,-81512.560987
1604.966686,444.123565,5033.400406,-78294.959896
1604.969247,592.164754,1776.494261,-78448.178995
1604.971807,444.123565,3997.112087,-77222.426198
1604.974367,-1332.370696,148.041188,-79367.493593
1604.976927,-740.205942,5625.565159,-78141.740796
1604.979487,740.205942,2220.617826,-80593.246390
1604.982047,1480.411884,-7698.141797,-79214.274493
1604.984607,-888.247130,-12583.501014,-79367.493593
1604.987167,-1628.453072,-15692.365970,-79214.274493
1604.989727,-740.205942,-13471.748144,-77988.521696
1604.992287,-444.123565,-11991.336260,-79061.055394
1604.994847,1036.288319,-6217.729913,-79214.274493
1604.997407,-888.247130,296.082377,-79061.055394
1604.999967,-2220.617826,4589.276840,-77069.207099
1605.002527,1332.370696,-3552.988522,-81512.560987
1605.005087,-1184.329507,-6957.935855,-78754.617194
1605.007647,1628.453072,296.082377,-77835.302597
1605.010208,-1628.453072,-16284.530724,-80286.808190
1605.012768,444.123565,-7846.182985,-78754.617194
1605.015328,1036.288319,-13471.748144,-78907.836294
1605.017888,148.041188,-11103.089130,-79061.055394
1605.020448,0.000000,-6069.688724,-78754.617194
1605.023008,-444.123565,-3108.864956,-79673.931792
1605.025568,592.164754,-2812.782580,-79980.369991
1605.028128,740.205942,-6661.853478,-80286.808190
1605.030688,740.205942,-7105.977043,-77375.645298
1605.033248,-888.247130,-2072.576638,-78448.178995
1605.035808,-592.164754,8142.265362,-78754.617194
1605.038368,1036.288319,11251.130318,-80899.684589
1605.040933,444.123565,13323.706956,-79061.055394
1605.043497,-2664.741391,8438.347739,-79367.493593
1605.046062,1036.288319,6513.812290,-77682.083497
1605.048626,-2368.659014,-3701.029710,-80133.589091
1605.051191,148.041188,1184.329507,-79061.055394
1605.053755,148.041188,-2368.659014,-80899.684589
1605.056320,-1628.453072,-2220.617826,-79061.055394
1605.058884,-296.082377,3256.906145,-76762.768900
1605.061448,296.082377,1924.535449,-78754.617194
1605.064013,444.123565,10214.842000,-79673.931792
1605.066577,-296.082377,8290.306550,-78754.617194
1605.069142,-1332.370696,12287.418637,-78601.398095
1605.071706,-592.164754,3552.988522,-79520.712692
1605.074271,296.082377,4737.318029,-78448.178995
1605.076835,-296.082377,-444.123565,-79214.274493
1605.079400,-1776.494261,4293.194464,-78907.836294
1605.081964,296.082377,1628.453072,-79980.369991
1605.084529,1036.288319,-2812.782580,-78754.617194
1605.087093,592.164754,-13915.871710,-78601.398095
1605.089658,-2368.659014,-16136.489536,-78754.617194
1605.092222,444.123565,-12287.418637,-77069.207099
1605.094787,1036.288319,-10807.006753,-80440.027290
1605.097351,444.123565,-4441.235652,-78754.617194
1605.099915,296.082377,1628.453072,-80286.808190
1605.102480,-888.247130,1480.411884,-78294.959896
1605.105044,0.000000,-5033.400406,-78754.617194
1605.107609,888.247130,-1776.494261,-77682.083497
1605.110173,-592.164754,-12139.377449,-80746.465489
1605.112738,-444.123565,-2368.659014,-80440.027290
1605.115302,-1184.329507,-12583.501014,-79673.931792
1605.117867,296.082377,-10658.965565,-77682.083497
1605.120431,148.041188,-11251.130318,-77222.426198
1605.123000,-888.247130,-4737.318029,-79367.493593
1605.125568,-740.205942,-6365.771101,-78754.617194
1605.128136,-296.082377,-3552.988522,-79827.150892
1605.130705,1184.329507,-6957.935855,-79673.931792
1605.133273,-1036.288319,-7105.977043,-79061.055394
1605.135842,296.082377,3256.906145,-78294.959896
1605.138410,-1036.288319,7698.141797,-79061.055394
1605.140979,296.082377,14656.077652,-79980.369991
1605.143547,-148.041188,9178.553681,-79367.493593
1605.146115,-592.164754,9474.636058,-77222.426198
1605.148684,-296.082377,2220.617826,-78601.398095
1605.151252,444.123565,-2812.782580,-80133.589091
1605.153821,740.205942,-1184.329507,-79827.150892
1605.156389,-296.082377,-3404.947333,-80746.465489
1605.158957,-740.205942,148.041188,-79520.712692
1605.161526,-444.123565,9030.512492,-76609.549800
1605.164094,148.041188,4737.318029,-79520.712692
1605.166663,0.000000,9178.553681,-79520.712692
1605.169231,0.000000,10066.800811,-79061.055394
1605.171800,-444.123565,6661.853478,-79367.493593
1605.174368,1332.370696,3108.864956,-78294.959896
1605.176936,-1332.370696,888.247130,-79520.712692
1605.179505,-148.041188,3404.947333,-77069.207099
1605.182073,-444.123565,5033.400406,-79214.274493
1605.184642,-148.041188,296.082377,-79214.274493
1605.187210,1184.329507,-7994.224174,-79827.150892
1605.189778,148.041188,-16876.695478,-79673.931792
1605.192347,-2664.741391,-14211.954086,-76609.549800
1605.194915,1036.288319,-15100.201217,-80593.246390
1605.197484,-1332.370696,-7105.977043,-78601.398095
1605.200052,2516.700203,-7550.100608,-81512.560987
1605.202621,-592.164754,2516.700203,-78141.740796
1605.205189,-1776.494261,-2072.576638,-78294.959896
1605.207757,-888.247130,1776.494261,-78448.178995
1605.210326,1036.288319,-6661.853478,-78601.398095
1605.212894,-444.123565,-7994.224174,-78601.398095
1605.215463,0.000000,-10214.842000,-80593.246390
1605.218031,-2516.700203,-10955.047942,-79214.274493
1605.220599,1036.288319,-12139.377449,-77682.083497
1605.223168,296.082377,-8586.388927,-78448.178995
1605.225738,-148.041188,-1776.494261,-78601.398095
1605.228309,-740.205942,-2960.823768,-79827.150892
1605.230879,0.000000,-4737.318029,-79520.712692
1605.233449,1628.453072,-8438.347739,-78754.617194
1605.236020,-1776.494261,-5033.400406,-79367.493593
1605.238590,-592.164754,6365.771101,-77988.521696
1605.241161,-740.205942,9474.636058,-79367.493593
1605.243731,592.164754,13767.830521,-79214.274493
1605.246301,888.247130,11103.089130,-79520.712692
1605.248872,-1332.370696,5773.606348,-78907.836294
1605.251442,-148.041188,2220.617826,-78141.740796
1605.254013,1332.370696,-1480.411884,-79673.931792
1605.256583,296.082377,592.164754,-79061.055394
1605.259153,-1184.329507,-10510.924376,-80286.808190
1605.261724,-1776.494261,9326.594869,-78294.959896
1605.264294,-740.205942,2516.700203,-74311.263306
1605.266865,-2072.576638,1924.535449,-78601.398095
1605.269435,0.000000,13027.624579,-79827.150892
1605.272005,-444.123565,7402.059420,-81818.999186
1605.274576,592.164754,7550.100608,-80286.808190
1605.277146,-740.205942,2516.700203,-76915.987999
1605.279717,0.000000,3701.029710,-77682.083497
1605.282287,-2220.617826,-740.205942,-78448.178995
1605.284857,-592.164754,592.164754,-79520.712692
1605.287428,740.205942,-9178.553681,-79980.369991
1605.289998,148.041188,-10807.006753,-78601.398095
1605.292569,-1628.453072,-16876.695478,-79061.055394
1605.295139,-888.247130,-11251.130318,-78754.617194
1605.297709,-740.205942,-13471.748144,-80593.246390
1605.300280,1332.370696,-3997.112087,-79980.369991
1605.302850,-740.205942,-1332.370696,-78601.398095
1605.305421,0.000000,1776.494261,-79980.369991
1605.307991,-1776.494261,-6661.853478,-79520.712692
1605.310561,1036.288319,-2960.823768,-77528.864398
1605.313132,296.082377,-7105.977043,-78601.398095
1605.315702,888.247130,-1776.494261,-78448.178995
1605.318273,-444.123565,-11547.212695,-79827.150892
1605.320843,-1036.288319,-11843.295072,-79367.493593
1605.323413,296.082377,-13767.830521,-77988.521696
1605.325984,-592.164754,-8290.306550,-80593.246390
1605.328556,-592.164754,-6809.894666,-79520.712692
1605.331128,-1628.453072,-1184.329507,-80746.465489
1605.333700,1184.329507,-8734.430116,-79061.055394
1605.336272,148.041188,-2368.659014,-77988.521696
1605.338844,-148.041188,4293.194464,-79061.055394
1605.341415,-1184.329507,12583.501014,-79520.712692
1605.343987,-888.247130,12435.459826,-80440.027290
1605.346559,296.082377,10510.924376,-79214.274493
1605.349131,-296.082377,4293.194464,-78294.959896
1605.351703,0.000000,1628.453072,-77222.426198
1605.354275,0.000000,-6809.894666,-78907.836294
1605.356847,0.000000,-1036.288319,-79827.150892
1605.359419,-888.247130,3404.947333,-81512.560987
1605.361991,-592.164754,1480.411884,-77682.083497
1605.364563,-888.247130,3552.988522,-77069.207099
1605.367135,592.164754,8438.347739,-78754.617194
1605.369707,-1776.494261,6661.853478,-78448.178995
1605.372279,-592.164754,10955.047942,-80593.246390
1605.374851,-740.205942,6217.729913,-78907.836294
1605.377423,-592.164754,3849.070898,-79367.493593
1605.379995,-296.082377,1184.329507,-78754.617194
1605.382567,-296.082377,3997.112087,-77835.302597
1605.385139,148.041188,3256.906145,-80593.246390
1605.387711,444.123565,-6957.935855,-79520.712692
1605.390283,296.082377,-13767.830521,-79827.150892
1605.392854,-1776.494261,-16432.571912,-78294.959896
1605.395426,-888.247130,-14804.118840,-78141.740796
1605.397998,0.000000,-11695.253884,-80133.589091
1605.400570,1036.288319,-3552.988522,-79827.150892
1605.403142,-148.041188,2220.617826,-79214.274493
1605.405714,-2072.576638,-3108.864956,-78141.740796
1605.408286,-444.123565,-2664.741391,-77069.207099
1605.410858,888.247130,-4145.153275,-77528.864398
1605.413430,-148.041188,-7105.977043,-80286.808190
1605.416002,-1184.329507,-11251.130318,-80899.684589
1605.418574,592.164754,-9178.553681,-77682.083497
1605.421146,740.205942,-11843.295072,-79367.493593
1605.423718,1184.329507,-11399.171507,-78907.836294
1605.426290,-740.205942,-7105.977043,-78907.836294
1605.428862,0.000000,-3997.112087,-80286.808190
1605.431435,-1776.494261,-3997.112087,-81359.341888
1605.434009,888.247130,-7402.059420,-78448.178995
1605.436583,-740.205942,-5033.400406,-78294.959896
1605.439156,-888.247130,7105.977043,-77835.302597
1605.441730,-888.247130,10658.965565,-79367.493593
1605.444303,-148.041188,14359.995275,-79673.931792
1605.446877,444.123565,9918.759623,-79520.712692
1605.449450,-888.247130,7105.977043,-79061.055394
1605.452024,148.041188,1036.288319,-77682.083497
1605.454598,-296.082377,-4885.359217,-78754.617194
1605.457171,1480.411884,-3701.029710,-78907.836294
1605.459745,-444.123565,3552.988522,-80899.684589
1605.462318,-740.205942,4737.318029,-78601.398095
1605.464892,-2072.576638,-444.123565,-80899.684589
1605.467466,888.247130,7402.059420,-78141.740796
1605.470039,148.041188,9770.718434,-80286.808190
1605.472613,-2072.576638,8882.471304,-80440.027290
1605.475186,148.041188,6809.894666,-79673.931792
1605.477760,-888.247130,3701.029710,-78141.740796
1605.480334,888.247130,1332.370696,-78141.740796
1605.482907,-148.041188,2220.617826,-78448.178995
1605.485481,740.205942,2664.741391,-80440.027290
1605.488054,592.164754,-8586.388927,-80286.808190
1605.490628,-592.164754,-14952.160028,-78754.617194
1605.493202,-1184.329507,-15988.448347,-78448.178995
1605.495775,-1332.370696,-11103.089130,-77988.521696
1605.498349,592.164754,-10214.842000,-79673.931792
1605.500922,888.247130,-3108.864956,-80133.589091
1605.503496,-740.205942,-1184.329507,-78601.398095
1605.506069,-1480.411884,-1184.329507,-77375.645298
1605.508643,0.000000,3404.947333,-78601.398095
1605.511217,1036.288319,-4145.153275,-77835.302597
1605.513790,-444.123565,-14359.995275,-79061.055394
1605.516364,-1480.411884,-5033.400406,-78294.959896
1605.518937,0.000000,-16284.530724,-80746.465489
1605.521511,1628.453072,-8734.430116,-78754.617194
1605.524085,-296.082377,-11103.089130,-77528.864398
1605.526658,-592.164754,-4885.359217,-79061.055394
1605.529232,-444.123565,-3849.070898,-78754.617194
1605.531805,2220.617826,-6809.894666,-80286.808190
1605.534378,-740.205942,-3552.988522,-77069.207099
1605.536952,-444.123565,5181.441594,-78294.959896
1605.539526,-1332.370696,10807.006753,-79061.055394
1605.542100,-1184.329507,13767.830521,-80899.684589
1605.544674,888.247130,9770.718434,-80286.808190
1605.547248,-888.247130,8734.430116,-78907.836294
1605.549822,-740.205942,2960.823768,-77682.083497
1605.552397,444.123565,-1036.288319,-79520.712692
1605.554971,148.041188,-592.164754,-80133.589091
1605.557545,444.123565,-6661.853478,-80440.027290
1605.560119,-2664.741391,1332.370696,-78448.178995
1605.562693,296.082377,10510.924376,-74770.920605
1605.565267,-148.041188,3701.029710,-79673.931792
1605.567841,148.041188,12287.418637,-78754.617194
1605.570415,-592.164754,6365.771101,-82431.875585
1605.572990,-592.164754,4885.359217,-79214.274493
1605.575564,-1184.329507,4145.153275,-78907.836294
1605.578138,-1480.411884,2368.659014,-77835.302597
1605.580712,1332.370696,5477.523971,-77375.645298
1605.583286,-2220.617826,-148.041188,-79673.931792
1605.585860,1924.535449,-10214.842000,-80133.589091
1605.588434,-2072.576638,-15544.324782,-80133.589091
1605.591009,-1776.494261,-13175.665768,-77528.864398
1605.593583,-148.041188,-14211.954086,-79673.931792
1605.596157,-592.164754,-6513.812290,-79367.493593
1605.598731,1924.535449,-4441.235652,-80746.465489
1605.601305,-2368.659014,1332.370696,-79214.274493
1605.603879,0.000000,1184.329507,-77988.521696
1605.606453,-1036.288319,-3108.864956,-77682.083497
1605.609027,296.082377,-5773.606348,-79214.274493
1605.611602,-1184.329507,-6365.771101,-80286.808190
1605.614176,-148.041188,-11399.171507,-79061.055394
1605.616750,-740.205942,-13027.624579,-80440.027290
1605.619324,1036.288319,-11547.212695,-78141.740796
1605.621898,-296.082377,-9178.553681,-79367.493593
1605.624472,296.082377,-7550.100608,-79367.493593
1605.627046,-740.205942,-1628.453072,-79520.712692
1605.629620,-888.247130,-7550.100608,-79980.369991
1605.632195,1628.453072,-3701.029710,-78601.398095
1605.634769,148.041188,3849.070898,-78448.178995
1605.637343,-1480.411884,14063.912898,-78294.959896
1605.639918,-740.205942,12139.377449,-79520.712692
1605.642493,888.247130,12435.459826,-79980.369991
1605.645067,-1332.370696,6661.853478,-79520.712692
1605.647642,444.123565,2072.576638,-77988.521696
1605.650217,-1628.453072,-6809.894666,-78448.178995
1605.652792,1628.453072,-2072.576638,-79673.931792
1605.655366,0.000000,-444.123565,-80133.589091
1605.657941,-592.164754,6217.729913,-78601.398095
1605.660516,-1480.411884,1924.535449,-79980.369991
1605.663090,296.082377,7994.224174,-77682.083497
1605.665665,-592.164754,9030.512492,-77988.521696
1605.668240,592.164754,11103.089130,-78294.959896
1605.670814,-1332.370696,7402.059420,-79827.150892
1605.673389,-592.164754,4589.276840,-79367.493593
1605.675964,-1036.288319,2368.659014,-78294.959896
1605.678539,740.205942,2664.741391,-79367.493593
1605.681113,-592.164754,888.247130,-79214.274493
1605.683688,740.205942,-11843.295072,-80286.808190
1605.686263,-444.123565,-14508.036463,-79520.712692
1605.688837,-1776.494261,-17468.860231,-78448.178995
1605.691412,-444.123565,-13619.789333,-79367.493593
1605.693987,148.041188,-9326.594869,-78448.178995
1605.696561,0.000000,-592.164754,-79214.274493
1605.699136,-1332.370696,1332.370696,-79520.712692
1605.701711,-1036.288319,3701.029710,-77682.083497
1605.704285,0.000000,-5773.606348,-79061.055394
1605.706860,296.082377,-11843.295072,-79673.931792
1605.709435,-444.123565,-3552.988522,-78448.178995
1605.712010,-1480.411884,-9474.636058,-80286.808190
1605.714584,296.082377,-12435.459826,-78754.617194
1605.717159,296.082377,-11991.336260,-78601.398095
1605.719734,148.041188,-8142.265362,-79214.274493
1605.722308,-444.123565,-6957.935855,-79673.931792
1605.724883,740.205942,-2368.659014,-80286.808190
1605.727458,-1184.329507,-6661.853478,-80746.465489
1605.730032,740.205942,-1924.535449,-78754.617194
1605.732607,-1628.453072,6069.688724,-77988.521696
1605.735182,0.000000,10807.006753,-78294.959896
1605.737757,0.000000,13027.624579,-80593.246390
1605.740332,1036.288319,9918.759623,-79061.055394
1605.742907,-888.247130,6217.729913,-78601.398095
1605.745482,-296.082377,444.123565,-77069.207099
1605.748057,-592.164754,-2812.782580,-78907.836294
1605.750633,444.123565,-6069.688724,-81052.903688
1605.753208,-592.164754,2516.700203,-78448.178995
1605.755783,-1184.329507,5921.647536,-79061.055394
1605.758358,148.041188,6957.935855,-76762.768900
1605.760934,-1184.329507,6217.729913,-77835.302597
1605.763509,148.041188,10807.006753,-79520.712692
1605.766084,-444.123565,8586.388927,-79980.369991
1605.768659,-888.247130,5329.482782,-78601.398095
1605.771235,-888.247130,3552.988522,-79061.055394
1605.773810,-1332.370696,1776.494261,-78294.959896
1605.776385,-1184.329507,5181.441594,-78141.740796
1605.778960,1036.288319,-8586.388927,-81512.560987
1605.781535,592.164754,-12583.501014,-78294.959896
1605.784111,-592.164754,-19393.395680,-80133.589091
1605.786686,-2220.617826,-13323.706956,-77988.521696
1605.789261,0.000000,-12879.583391,-78907.836294
1605.791836,740.205942,-4145.153275,-78601.398095
1605.794412,1036.288319,740.205942,-80440.027290
1605.796987,-1332.370696,740.205942,-79827.150892
1605.799562,0.000000,5477.523971,-77222.426198
1605.802137,1184.329507,-13175.665768,-79367.493593
1605.804712,1184.329507,-7994.224174,-77528.864398
1605.807288,0.000000,-9030.512492,-79214.274493
1605.809863,-1776.494261,-12583.501014,-80899.684589
1605.812438,-592.164754,-12731.542202,-80133.589091
1605.815013,296.082377,-11399.171507,-78601.398095
1605.817589,-296.082377,-5033.400406,-79520.712692
1605.820164,-148.041188,-3404.947333,-79827.150892
1605.822739,592.164754,-3552.988522,-80133.589091
1605.825314,-444.123565,-7105.977043,-80593.246390
1605.827890,592.164754,6513.812290,-77988.521696
1605.830465,-1036.288319,6217.729913,-77682.083497
1605.833040,2072.576638,17024.736666,-77988.521696
1605.835615,-148.041188,8734.430116,-81206.122788
1605.838190,-888.247130,10066.800811,-78141.740796
1605.840766,-296.082377,148.041188,-78907.836294
1605.843308,148.041188,-1332.370696,-78907.836294
1605.845850,-148.041188,-1184.329507,-80746.465489
1605.848393,740.205942,-5921.647536,-82125.437386
1605.850935,-2664.741391,-296.082377,-79673.931792
1605.853477,444.123565,11547.212695,-75230.577904
1605.856020,148.041188,4737.318029,-77682.083497
1605.858562,-296.082377,12879.583391,-78754.617194
1605.861105,296.082377,11695.253884,-78141.740796
1605.863647,-1036.288319,4441.235652,-80133.589091
1605.866189,592.164754,5625.565159,-78601.398095
1605.868732,-2812.782580,1184.329507,-79980.369991
1605.871274,888.247130,8438.347739,-77682.083497
1605.873816,-592.164754,-5625.565159,-79214.274493
1605.876359,1184.329507,-11547.212695,-77528.864398
1605.878901,-888.247130,-19541.436869,-80746.465489
1605.881443,-1480.411884,-15692.365970,-78448.178995
1605.883986,0.000000,-11399.171507,-78141.740796
1605.886528,296.082377,-5033.400406,-79827.150892
1605.889071,592.164754,-2516.700203,-78294.959896
1605.891613,-592.164754,3849.070898,-81052.903688
1605.894155,-888.247130,-4293.194464,-79061.055394
1605.896698,296.082377,-1776.494261,-78141.740796
1605.899240,1036.288319,-7846.182985,-80286.808190
1605.901782,-1184.329507,-7698.141797,-80133.589091
1605.904325,296.082377,-12139.377449,-77682.083497
1605.906867,148.041188,-10214.842000,-78601.398095
1605.909409,1036.288319,-12879.583391,-78907.836294
1605.911952,-444.123565,-9178.553681,-79367.493593
1605.914494,740.205942,-3849.070898,-79673.931792
1605.917036,-296.082377,-3997.112087,-80593.246390
1605.919579,444.123565,-5033.400406,-79980.369991
1605.922121,-1776.494261,5625.565159,-78448.178995
1605.924664,-444.123565,10066.800811,-79061.055394
1605.927206,296.082377,15100.201217,-77988.521696
1605.929748,-148.041188,10955.047942,-79061.055394
1605.932291,-1480.411884,7846.182985,-79061.055394
1605.934833,-148.041188,444.123565,-77988.521696
1605.937375,148.041188,-2960.823768,-79827.150892
1605.939918,148.041188,-3256.906145,-78601.398095
1605.942460,-444.123565,-3404.947333,-80746.465489
1605.945009,-1036.288319,7105.977043,-78907.836294
1605.947558,-1332.370696,4589.276840,-77069.207099
1605.950107,1480.411884,8586.388927,-79214.274493
1605.952656,-444.123565,7254.018232,-78448.178995
1605.955205,-296.082377,13323.706956,-79673.931792
1605.957753,-1776.494261,6069.688724,-79061.055394
1605.960302,-740.205942,6513.812290,-78907.836294
1605.962851,-296.082377,4589.276840,-78601.398095
1605.965400,740.205942,1036.288319,-79061.055394
1605.967949,0.000000,-6513.812290,-78601.398095
1605.970498,1480.411884,-16432.571912,-79367.493593
1605.973047,-2072.576638,-16284.530724,-79214.274493
1605.975596,-444.123565,-16432.571912,-78754.617194
1605.978145,-1184.329507,-11251.130318,-79367.493593
1605.980693,888.247130,-4293.194464,-78294.959896
1605.983242,-592.164754,3552.988522,-79214.274493
1605.985791,-888.247130,3552.988522,-78448.178995
1605.988340,-1036.288319,-4737.318029,-78294.959896
1605.990889,444.123565,-9178.553681,-79673.931792
1605.993438,148.041188,-3997.112087,-77835.302597
1605.995987,-1628.453072,-12583.501014,-81052.903688
1605.998536,148.041188,-10658.965565,-78141.740796
1606.001085,296.082377,-15692.365970,-80440.027290
1606.003634,-888.247130,-6957.935855,-77988.521696
1606.006182,0.000000,-8142.265362,-79061.055394
1606.008731,-1036.288319,-888.247130,-80286.808190
1606.011280,444.123565,-6365.771101,-79061.055394
1606.013829,-1332.370696,-1332.370696,-79827.150892
1606.016378,-444.123565,6365.771101,-78601.398095
1606.018927,0.000000,14952.160028,-77988.521696
1606.021476,0.000000,12287.418637,-79367.493593
1606.024025,-592.164754,12435.459826,-79520.712692
1606.026574,-1332.370696,3997.112087,-79061.055394
1606.029122,1332.370696,1628.453072,-78141.740796
1606.031671,-444.123565,-4293.194464,-77988.521696
1606.034220,-296.082377,-2664.741391,-79980.369991
1606.036769,-1184.329507,-1332.370696,-81052.903688
1606.039318,-1332.370696,4589.276840,-80899.684589
1606.041867,444.123565,7105.977043,-77988.521696
1606.044416,0.000000,11547.212695,-78448.178995
1606.046970,888.247130,12139.377449,-79214.274493
1606.049525,-1332.370696,7105.977043,-80746.465489
1606.052080,296.082377,6365.771101,-78907.836294
1606.054634,-3849.070898,-444.123565,-79520.712692
1606.057189,1924.535449,4293.194464,-76915.987999
1606.059743,-1776.494261,1332.370696,-79520.712692
1606.062298,2072.576638,-11547.212695,-79367.493593
1606.064853,-296.082377,-17024.736666,-79520.712692
1606.067407,-2220.617826,-16432.571912,-78754.617194
1606.069962,888.247130,-12287.418637,-78907.836294
1606.072516,1036.288319,-8882.471304,-81359.341888
1606.075071,888.247130,444.123565,-79980.369991
1606.077626,-888.247130,-2368.659014,-79367.493593
1606.080180,-1332.370696,5033.400406,-77528.864398
1606.082735,-740.205942,-6809.894666,-79214.274493
1606.085289,1480.411884,-6365.771101,-78141.740796
1606.087844,-444.123565,-11399.171507,-80133.589091
1606.090399,-1184.329507,-12583.501014,-79061.055394
1606.092953,592.164754,-15100.201217,-78754.617194
1606.095508,-1184.329507,-9622.677246,-79061.055394
1606.098062,1332.370696,-7994.224174,-79367.493593
1606.100617,-296.082377,-4293.194464,-79520.712692
1606.103172,2220.617826,-5033.400406,-80286.808190
1606.105726,-1628.453072,-5181.441594,-79673.931792
1606.108281,-148.041188,6217.729913,-79061.055394
1606.110835,-1480.411884,11843.295072,-77682.083497
1606.113390,148.041188,15248.242405,-79827.150892
1606.115944,296.082377,10658.965565,-79061.055394
1606.118499,-1036.288319,10362.883188,-79367.493593
1606.121054,-888.247130,-296.082377,-79061.055394
1606.123608,-444.123565,-2220.617826,-79367.493593
1606.126163,444.123565,-7846.182985,-78907.836294
1606.128717,740.205942,10807.006753,-76609.549800
1606.131272,-740.205942,-5921.647536,-82278.656485
1606.133827,-888.247130,8882.471304,-78141.740796
1606.136381,296.082377,4737.318029,-79214.274493
1606.138936,-444.123565,15396.283594,-79980.369991
1606.141490,0.000000,7846.182985,-79827.150892
1606.144045,-1924.535449,5625.565159,-80899.684589
1606.146600,-592.164754,4145.153275,-79061.055394
1606.149158,148.041188,888.247130,-79214.274493
1606.151717,2516.700203,2812.782580,-76915.987999
1606.154275,-592.164754,-12583.501014,-81206.122788
1606.156833,-592.164754,-13175.665768,-78448.178995
1606.159392,-2664.741391,-19985.560434,-80133.589091
1606.161950,1184.329507,-12139.377449,-78141.740796
1606.164509,-592.164754,-9770.718434,-80286.808190
1606.167067,1924.535449,-1924.535449,-79673.931792
1606.169626,-296.082377,2664.741391,-79367.493593
1606.172184,-1776.494261,-2960.823768,-78907.836294
1606.174743,148.041188,-740.205942,-77682.083497
1606.177301,1036.288319,-6365.771101,-78754.617194
1606.179860,592.164754,-5773.606348,-79214.274493
1606.182418,296.082377,-11843.295072,-79980.369991
1606.184977,-1480.411884,-11695.253884,-79214.274493
1606.187535,-888.247130,-13027.624579,-80440.027290
1606.190094,740.205942,-10807.006753,-79061.055394
1606.192652,0.000000,-5329.482782,-78601.398095
1606.195211,0.000000,-7402.059420,-80286.808190
1606.197769,-592.164754,-2812.782580,-79367.493593
1606.200327,-592.164754,6513.812290,-79367.493593
1606.202886,-444.123565,12879.583391,-78601.398095
1606.205444,740.205942,15248.242405,-79061.055394
1606.208003,444.123565,11399.171507,-79367.493593
1606.210561,-1332.370696,6809.894666,-79520.712692
1606.213120,444.123565,-740.205942,-78907.836294
1606.215678,-1924.535449,-3997.112087,-78294.959896
1606.218237,592.164754,-148.041188,-79367.493593
1606.220795,-888.247130,-2960.823768,-80440.027290
1606.223354,-740.205942,6661.853478,-78907.836294
1606.225912,-592.164754,2960.823768,-79827.150892
1606.228471,1036.288319,11695.253884,-79214.274493
1606.231029,-444.123565,8142.265362,-78601.398095
1606.233588,-888.247130,11251.130318,-78448.178995
1606.236146,-1036.288319,7402.059420,-78907.836294
1606.238704,-2960.823768,3404.947333,-79061.055394
1606.241263,592.164754,3108.864956,-77988.521696
1606.243821,1184.329507,2960.823768,-78754.617194
1606.246380,1628.453072,-11547.212695,-78448.178995
1606.248938,-1184.329507,-17764.942608,-80133.589091
1606.251501,-740.205942,-18505.148550,-78601.398095
1606.254063,740.205942,-13027.624579,-80440.027290
1606.256625,0.000000,-9918.759623,-78907.836294
1606.259187,592.164754,296.082377,-79827.150892
1606.261749,740.205942,1036.288319,-77835.302597
1606.264312,-1332.370696,-888.247130,-77375.645298
1606.266874,592.164754,0.000000,-77528.864398
1606.269436,740.205942,-9918.759623,-79367.493593
1606.271998,2220.617826,-6661.853478,-77069.207099
1606.274560,-1036.288319,-14656.077652,-79980.369991
1606.277123,-1184.329507,-11843.295072,-78294.959896
1606.279685,-888.247130,-13027.624579,-80440.027290
1606.282247,1332.370696,-8734.430116,-79520.712692
1606.284809,296.082377,-6069.688724,-79214.274493
1606.287371,888.247130,-3849.070898,-80440.027290
1606.289934,-1184.329507,-2664.741391,-79520.712692
1606.292496,-148.041188,9326.594869,-78294.959896
1606.295058,-888.247130,11991.336260,-79520.712692
1606.297620,-148.041188,15248.242405,-78601.398095
1606.300183,592.164754,11695.253884,-78754.617194
1606.302745,-740.205942,7402.059420,-79673.931792
1606.305307,-296.082377,-296.082377,-78448.178995
1606.307869,296.082377,-6069.688724,-80133.589091
1606.310431,740.205942,888.247130,-77835.302597
1606.312994,-740.205942,-3404.947333,-81359.341888
1606.315556,-444.123565,5329.482782,-79520.712692
1606.318118,1036.288319,5921.647536,-78141.740796
1606.320680,-888.247130,9622.677246,-77528.864398
1606.323242,296.082377,12879.583391,-79827.150892
1606.325805,-740.205942,8734.430116,-80286.808190
1606.328367,-148.041188,6069.688724,-78601.398095
1606.330929,-2664.741391,2812.782580,-79673.931792
1606.333462,740.205942,5773.606348,-79061.055394
1606.335995,-1480.411884,-5625.565159,-79827.150892
1606.338528,888.247130,-13767.830521,-79061.055394
1606.341061,-592.164754,-17764.942608,-78754.617194
