#time,accel_x,accel_y,accel_z
276.310714,2220.617826,-1628.453072,-78601.398095
276.314185,1332.370696,-3552.988522,-79520.712692
276.317657,-3108.864956,-2812.782580,-78754.617194
276.321128,-1480.411884,-148.041188,-79367.493593
276.324600,296.082377,-1776.494261,-78294.959896
276.328071,296.082377,-2960.823768,-79367.493593
276.331543,148.041188,-2072.576638,-78754.617194
276.335015,-1332.370696,-1036.288319,-78448.178995
276.338486,1184.329507,-1776.494261,-78907.836294
276.341958,0.000000,-2664.741391,-79214.274493
276.345429,-740.205942,-2664.741391,-79214.274493
276.348901,-740.205942,-444.123565,-78601.398095
276.352372,444.123565,-1776.494261,-78601.398095
276.355844,-1332.370696,-1628.453072,-79367.493593
276.359316,-296.082377,2368.659014,-78754.617194
276.362787,-148.041188,-3997.112087,-78141.740796
276.366259,1036.288319,-4737.318029,-78294.959896
276.369730,444.123565,-3552.988522,-77069.207099
276.373202,-740.205942,-10362.883188,-77528.864398
276.376674,-888.247130,-5773.606348,-79827.150892
276.380145,-740.205942,-2220.617826,-79827.150892
276.383617,444.123565,-296.082377,-77528.864398
276.387088,-296.082377,-740.205942,-78601.398095
276.390560,-1332.370696,-5773.606348,-78754.617194
276.394031,592.164754,-3552.988522,-78294.959896
276.397503,-1036.288319,148.041188,-79827.150892
276.400975,-740.205942,5329.482782,-79520.712692
276.404446,444.123565,9030.512492,-78448.178995
276.407918,-1480.411884,444.123565,-79673.931792
276.411389,-740.205942,-296.082377,-78601.398095
276.414861,2516.700203,-2072.576638,-78754.617194
276.418333,-1036.288319,-7550.100608,-78448.178995
276.421759,-2368.659014,888.247130,-78294.959896
276.425186,-148.041188,-1924.535449,-81359.341888
276.428613,-1036.288319,2664.741391,-80593.246390
276.432040,888.247130,2664.741391,-80440.027290
276.435467,740.205942,-6957.935855,-80286.808190
276.438894,-148.041188,-9474.636058,-80440.027290
276.442321,148.041188,-444.123565,-79673.931792
276.445747,-1628.453072,5181.441594,-78141.740796
276.449174,-148.041188,5181.441594,-78448.178995
276.452601,-296.082377,5329.482782,-78448.178995
276.456028,-148.041188,740.205942,-79214.274493
276.459455,148.041188,296.082377,-78448.178995
276.462882,-592.164754,-1628.453072,-78754.617194
276.466308,740.205942,1480.411884,-78754.617194
276.469735,1332.370696,7402.059420,-78294.959896
276.473162,-1036.288319,6217.729913,-79520.712692
276.476589,296.082377,1184.329507,-79061.055394
276.480016,-444.123565,-444.123565,-78448.178995
276.483443,592.164754,-11251.130318,-78754.617194
276.486870,-740.205942,-6809.894666,-78907.836294
276.490296,-2072.576638,-7994.224174,-80133.589091
276.493723,740.205942,-7550.100608,-79367.493593
276.497150,1036.288319,-740.205942,-78448.178995
276.500577,444.123565,-2812.782580,-80593.246390
276.504004,-2072.576638,-5921.647536,-78907.836294
276.507431,3108.864956,-7105.977043,-78907.836294
276.510858,-1480.411884,-7846.182985,-79520.712692
276.514284,-1036.288319,-3404.947333,-78448.178995
276.517711,-1184.329507,-4145.153275,-79214.274493
276.521138,-1036.288319,-4145.153275,-79367.493593
276.524565,-1776.494261,-1184.329507,-78907.836294
276.527992,-148.041188,-5181.441594,-77682.083497
276.531380,-296.082377,-6957.935855,-78907.836294
276.534768,592.164754,-10510.924376,-79827.150892
276.538157,-2812.782580,-5477.523971,-81052.903688
276.541545,-3108.864956,6217.729913,-76456.330700
276.544933,296.082377,-6365.771101,-77069.207099
276.548321,888.247130,-11103.089130,-81052.903688
276.551710,-2368.659014,-5329.482782,-80286.808190
276.555098,-2664.741391,-4293.194464,-75383.797003
276.558486,-1184.329507,-7402.059420,-79061.055394
276.561874,592.164754,-2516.700203,-79061.055394
276.565263,888.247130,-1776.494261,-78294.959896
276.568651,-1184.329507,-6365.771101,-78907.836294
276.572039,-1036.288319,-5773.606348,-78907.836294
276.575428,-296.082377,-9918.759623,-78294.959896
276.578816,148.041188,-5033.400406,-78907.836294
276.582204,-444.123565,-444.123565,-78754.617194
276.585592,0.000000,-2812.782580,-78448.178995
276.588981,-444.123565,2220.617826,-77682.083497
276.592369,-1480.411884,6809.894666,-80286.808190
276.595757,-1184.329507,1480.411884,-79980.369991
276.599145,1480.411884,1776.494261,-77528.864398
276.602534,0.000000,-444.123565,-77528.864398
276.605922,-444.123565,-3404.947333,-80133.589091
276.609310,444.123565,740.205942,-79214.274493
276.612699,-1184.329507,1480.411884,-78601.398095
276.616087,444.123565,1036.288319,-79061.055394
276.619475,1036.288319,3256.906145,-79673.931792
276.622863,-2368.659014,148.041188,-78907.836294
276.626252,-444.123565,-1924.535449,-78907.836294
276.629640,-1184.329507,-592.164754,-77069.207099
276.633028,-888.247130,5033.400406,-77528.864398
276.636416,1036.288319,2368.659014,-77988.521696
276.639768,148.041188,2220.617826,-78601.398095
276.643119,-148.041188,2072.576638,-77069.207099
276.646470,444.123565,-592.164754,-78601.398095
276.649822,-740.205942,3997.112087,-79061.055394
276.653173,-444.123565,5477.523971,-78141.740796
276.656524,-592.164754,3997.112087,-77835.302597
276.659875,-592.164754,2368.659014,-79673.931792
276.663227,1924.535449,444.123565,-79980.369991
276.666578,444.123565,-740.205942,-79673.931792
276.669929,444.123565,2812.782580,-78448.178995
276.673280,0.000000,3849.070898,-78754.617194
276.676632,0.000000,740.205942,-79520.712692
276.679983,-148.041188,1332.370696,-78601.398095
276.683334,296.082377,3701.029710,-78907.836294
276.686686,148.041188,-3849.070898,-79214.274493
276.690037,592.164754,-7698.141797,-77375.645298
276.693388,-2368.659014,-7402.059420,-78601.398095
276.696739,-148.041188,-7698.141797,-79520.712692
276.700091,1924.535449,-740.205942,-78601.398095
276.703442,-2072.576638,-888.247130,-79520.712692
276.706793,-1924.535449,-2812.782580,-78601.398095
276.710145,1924.535449,-4885.359217,-80286.808190
276.713496,444.123565,-6957.935855,-79214.274493
276.716847,-444.123565,-6809.894666,-78294.959896
276.720198,-2220.617826,-7402.059420,-78141.740796
276.723550,1184.329507,-4145.153275,-79520.712692
276.726901,148.041188,1184.329507,-80593.246390
276.730252,-1184.329507,1480.411884,-79980.369991
276.733603,740.205942,-9770.718434,-78907.836294
276.736955,-296.082377,-9770.718434,-81512.560987
276.740306,-2220.617826,-5033.400406,-79980.369991
276.743657,2072.576638,-3701.029710,-77988.521696
276.746986,444.123565,-6365.771101,-78754.617194
276.750312,-1184.329507,-6069.688724,-78141.740796
276.753637,296.082377,-6069.688724,-78294.959896
276.756962,-2220.617826,-4293.194464,-79214.274493
276.760287,-1480.411884,-5033.400406,-78907.836294
276.763613,1332.370696,-1924.535449,-79673.931792
276.766938,-148.041188,-4293.194464,-77988.521696
276.770263,-2368.659014,-5181.441594,-77682.083497
276.773588,-1184.329507,-5329.482782,-79367.493593
276.776914,-592.164754,-5773.606348,-79061.055394
276.780239,444.123565,-4589.276840,-79061.055394
276.783564,0.000000,-3552.988522,-78754.617194
276.786889,-888.247130,3256.906145,-79980.369991
276.790215,-1184.329507,8438.347739,-78907.836294
276.793540,1480.411884,2664.741391,-78294.959896
276.796865,-2812.782580,148.041188,-79367.493593
276.800190,-444.123565,-148.041188,-79520.712692
276.803516,-1628.453072,-5329.482782,-80593.246390
276.806841,740.205942,-2664.741391,-80133.589091
276.810166,-1184.329507,2960.823768,-78294.959896
276.813491,-1184.329507,1628.453072,-78907.836294
276.816817,1480.411884,4885.359217,-80286.808190
276.820142,1036.288319,3256.906145,-78294.959896
276.823467,-592.164754,-3552.988522,-76762.768900
276.826768,-296.082377,1924.535449,-77528.864398
276.830069,-1776.494261,4885.359217,-78294.959896
276.833369,0.000000,-8586.388927,-80440.027290
276.836670,1332.370696,-4293.194464,-81818.999186
276.839971,-888.247130,7105.977043,-78141.740796
276.843272,296.082377,1036.288319,-77375.645298
276.846573,888.247130,1036.288319,-80746.465489
276.849873,0.000000,3849.070898,-77682.083497
276.853174,-2368.659014,1184.329507,-79214.274493
276.856475,-148.041188,-3108.864956,-81052.903688
276.859776,296.082377,-1036.288319,-78601.398095
276.863077,-1332.370696,2516.700203,-79673.931792
276.866377,148.041188,4441.235652,-77988.521696
276.869678,1332.370696,1332.370696,-78907.836294
276.872979,-2368.659014,-296.082377,-80593.246390
276.876280,-1924.535449,2220.617826,-79827.150892
276.879581,888.247130,-6513.812290,-79980.369991
276.882881,-888.247130,-10066.800811,-78448.178995
276.886182,-1184.329507,-7254.018232,-77069.207099
276.889483,444.123565,-6513.812290,-79673.931792
276.892784,-1184.329507,-1924.535449,-79061.055394
276.896085,-740.205942,888.247130,-77528.864398
276.899385,-1184.329507,-4145.153275,-79673.931792
276.902686,-740.205942,-6365.771101,-80133.589091
276.905987,-444.123565,-6217.729913,-78754.617194
276.909288,-740.205942,-8734.430116,-78448.178995
276.912589,148.041188,-8142.265362,-79061.055394
276.915889,1036.288319,-3701.029710,-79367.493593
276.919190,-148.041188,592.164754,-79520.712692
276.922491,-296.082377,1036.288319,-76456.330700
276.925792,296.082377,-1036.288319,-77682.083497
276.929093,0.000000,-5181.441594,-79673.931792
276.932237,0.000000,-7550.100608,-80133.589091
276.935381,888.247130,-5329.482782,-79827.150892
276.938525,-1480.411884,-5477.523971,-79980.369991
276.941669,-740.205942,-9030.512492,-78141.740796
276.944813,1628.453072,-4737.318029,-78141.740796
276.947957,-148.041188,-3997.112087,-77682.083497
276.951102,-1332.370696,-888.247130,-78754.617194
276.954246,2072.576638,-5329.482782,-79367.493593
276.957390,-1480.411884,-5921.647536,-78448.178995
276.960534,-2220.617826,-4441.235652,-80286.808190
276.963678,1776.494261,-4441.235652,-78754.617194
276.966822,-444.123565,-6365.771101,-78448.178995
276.969966,444.123565,-1332.370696,-78601.398095
276.973110,-148.041188,3997.112087,-79520.712692
276.976255,-1776.494261,7254.018232,-79980.369991
276.979399,1332.370696,5181.441594,-77835.302597
276.982543,444.123565,-1184.329507,-77988.521696
276.985687,-592.164754,-1036.288319,-79980.369991
276.988831,-148.041188,-4441.235652,-79214.274493
276.991975,296.082377,-2516.700203,-79827.150892
276.995119,-296.082377,3552.988522,-78294.959896
276.998264,-296.082377,3701.029710,-79214.274493
277.001408,1480.411884,4441.235652,-80286.808190
277.004552,-2664.741391,-296.082377,-79367.493593
277.007696,888.247130,-3997.112087,-77682.083497
277.010840,296.082377,-2960.823768,-79980.369991
277.013984,888.247130,-444.123565,-80286.808190
277.017128,444.123565,-740.205942,-78754.617194
277.020273,-1332.370696,1036.288319,-78754.617194
277.023417,444.123565,1628.453072,-78601.398095
277.026561,444.123565,3108.864956,-78601.398095
277.029705,2072.576638,3404.947333,-80133.589091
277.032749,0.000000,740.205942,-77988.521696
277.035794,-1628.453072,-888.247130,-79520.712692
277.038838,2220.617826,-888.247130,-79520.712692
277.041883,-2516.700203,-148.041188,-79520.712692
277.044927,-1628.453072,3552.988522,-78141.740796
277.047971,1036.288319,3404.947333,-78754.617194
277.051016,-1776.494261,2516.700203,-79673.931792
277.054060,0.000000,1036.288319,-79214.274493
277.057105,-148.041188,-8586.388927,-80286.808190
277.060149,-1184.329507,-11695.253884,-78294.959896
277.063193,-592.164754,-8142.265362,-77222.426198
277.066238,-740.205942,-6661.853478,-80593.246390
277.069282,740.205942,-148.041188,-78448.178995
277.072327,-1184.329507,1036.288319,-78448.178995
277.075371,-1184.329507,-4737.318029,-79520.712692
277.078415,444.123565,-5477.523971,-78448.178995
277.081460,-444.123565,-7402.059420,-79367.493593
277.084504,-3108.864956,-10807.006753,-78294.959896
277.087549,1332.370696,-9178.553681,-77682.083497
277.090593,-148.041188,-2220.617826,-79367.493593
277.093637,148.041188,-6069.688724,-79520.712692
277.096682,-444.123565,-4293.194464,-78754.617194
277.099726,296.082377,-5921.647536,-79827.150892
277.102771,-296.082377,-3404.947333,-79367.493593
277.105815,1036.288319,-4589.276840,-78601.398095
277.108859,2072.576638,-11547.212695,-79520.712692
277.111904,-3404.947333,-8734.430116,-79827.150892
277.114948,-148.041188,-8586.388927,-80899.684589
277.117993,888.247130,-7105.977043,-79673.931792
277.121037,-2220.617826,-3404.947333,-80440.027290
277.124082,2220.617826,-5329.482782,-78601.398095
277.127126,740.205942,-6957.935855,-78601.398095
277.130108,-2220.617826,-5625.565159,-79061.055394
277.133091,-592.164754,-4589.276840,-79520.712692
277.136073,740.205942,-6217.729913,-79673.931792
277.139056,-740.205942,-1924.535449,-78601.398095
277.142038,1036.288319,4293.194464,-78907.836294
277.145021,-1628.453072,8882.471304,-79520.712692
277.148003,-444.123565,6217.729913,-78294.959896
277.150986,1184.329507,-1036.288319,-78448.178995
277.153968,-888.247130,-1480.411884,-79061.055394
277.156951,148.041188,-3701.029710,-79827.150892
277.159933,148.041188,-1036.288319,-79367.493593
277.162916,-444.123565,3701.029710,-77375.645298
277.165898,148.041188,5329.482782,-79214.274493
277.168881,-444.123565,5181.441594,-79214.274493
277.171863,592.164754,1036.288319,-81512.560987
277.174845,888.247130,444.123565,-76915.987999
277.177828,296.082377,-592.164754,-76762.768900
277.180810,-740.205942,1480.411884,-80593.246390
277.183793,-3256.906145,888.247130,-79367.493593
277.186775,148.041188,3849.070898,-78601.398095
277.189758,-592.164754,6957.935855,-79673.931792
277.192740,-592.164754,3849.070898,-79061.055394
277.195723,888.247130,1480.411884,-78601.398095
277.198705,-1480.411884,-592.164754,-79980.369991
277.201688,-296.082377,-1036.288319,-78601.398095
277.204670,2812.782580,2960.823768,-79061.055394
277.207653,-2960.823768,5625.565159,-78907.836294
277.210635,444.123565,3256.906145,-78448.178995
277.213618,1776.494261,2220.617826,-78907.836294
277.216600,-2072.576638,1332.370696,-79061.055394
277.219583,0.000000,-6513.812290,-78294.959896
277.222565,296.082377,-10807.006753,-78141.740796
277.225511,-1924.535449,-9178.553681,-78601.398095
277.228458,444.123565,-8142.265362,-79980.369991
277.231404,-592.164754,-2220.617826,-79061.055394
277.234350,-1924.535449,-296.082377,-78907.836294
277.237296,-1480.411884,-3849.070898,-79520.712692
277.240243,444.123565,-6513.812290,-79214.274493
277.243189,-1628.453072,-7846.182985,-79520.712692
277.246135,740.205942,-10362.883188,-78448.178995
277.249081,-888.247130,-4589.276840,-79367.493593
277.252028,-740.205942,-888.247130,-77528.864398
277.254974,592.164754,-1776.494261,-78907.836294
277.257920,148.041188,-3256.906145,-80899.684589
277.260866,-2220.617826,-5477.523971,-79673.931792
277.263813,-148.041188,-5477.523971,-80286.808190
277.266759,444.123565,-6513.812290,-80440.027290
277.269705,148.041188,-6661.853478,-79673.931792
277.272651,-1184.329507,-6957.935855,-78448.178995
277.275598,1924.535449,-3849.070898,-79214.274493
277.278544,-2220.617826,-3256.906145,-79061.055394
277.281490,-888.247130,-3552.988522,-78754.617194
277.284436,-148.041188,-4145.153275,-78448.178995
277.287383,-592.164754,-4441.235652,-78754.617194
277.290329,-296.082377,-4737.318029,-78907.836294
277.293275,-444.123565,-4885.359217,-78754.617194
277.296221,-740.205942,-6069.688724,-78907.836294
277.299168,888.247130,3108.864956,-78907.836294
277.302114,-740.205942,9918.759623,-78907.836294
277.305060,-148.041188,2516.700203,-79827.150892
277.308006,-148.041188,2812.782580,-78754.617194
277.310953,888.247130,-2516.700203,-78907.836294
277.313899,-2072.576638,-5329.482782,-79827.150892
277.316845,-296.082377,740.205942,-79520.712692
277.319773,148.041188,1332.370696,-79061.055394
277.322701,-1628.453072,5329.482782,-79061.055394
277.325628,-148.041188,6957.935855,-78754.617194
277.328556,296.082377,-148.041188,-78141.740796
277.331484,-1332.370696,1184.329507,-77069.207099
277.334412,296.082377,-3256.906145,-79673.931792
277.337339,-1332.370696,592.164754,-77528.864398
277.340267,296.082377,2960.823768,-78907.836294
277.343195,444.123565,3849.070898,-79520.712692
277.346123,-2072.576638,8438.347739,-78754.617194
277.349051,1036.288319,4589.276840,-78754.617194
277.351978,-1480.411884,-2072.576638,-80286.808190
277.354906,-1628.453072,-1184.329507,-79061.055394
277.357834,2664.741391,-148.041188,-78448.178995
277.360762,-1184.329507,1628.453072,-79061.055394
277.363689,-1332.370696,1776.494261,-78754.617194
277.366617,0.000000,3256.906145,-78601.398095
277.369545,-888.247130,7402.059420,-78907.836294
277.372473,1036.288319,-1924.535449,-79367.493593
277.375400,-888.247130,-11843.295072,-79214.274493
277.378328,-2516.700203,-12287.418637,-79061.055394
277.381256,740.205942,-10066.800811,-79367.493593
277.384184,-444.123565,-3849.070898,-78907.836294
277.387112,-1184.329507,0.000000,-78141.740796
277.390039,444.123565,2072.576638,-78294.959896
277.392967,-1036.288319,-4293.194464,-79214.274493
277.395895,-592.164754,-8734.430116,-79673.931792
277.398823,-1628.453072,-10362.883188,-78754.617194
277.401750,-1924.535449,-5477.523971,-79367.493593
277.404678,888.247130,-1036.288319,-78754.617194
277.407606,0.000000,-296.082377,-78141.740796
277.410534,-444.123565,-1036.288319,-78448.178995
277.413548,-888.247130,-6957.935855,-77835.302597
277.416563,-1332.370696,-8586.388927,-79367.493593
277.419577,-296.082377,-8290.306550,-78754.617194
277.422592,-148.041188,-10955.047942,-78907.836294
277.425606,-1332.370696,-7698.141797,-78294.959896
277.428621,1332.370696,-3108.864956,-78448.178995
277.431635,296.082377,-3404.947333,-80133.589091
277.434650,-888.247130,-5181.441594,-79367.493593
277.437664,296.082377,-6513.812290,-78448.178995
277.440679,-1184.329507,-5477.523971,-79367.493593
277.443693,-148.041188,-3108.864956,-78294.959896
277.446708,-1184.329507,-7402.059420,-79673.931792
277.449722,-888.247130,-740.205942,-79214.274493
277.452737,592.164754,6957.935855,-79520.712692
277.455751,-1924.535449,7698.141797,-80133.589091
277.458766,148.041188,7254.018232,-78754.617194
277.461781,-1776.494261,1924.535449,-78294.959896
277.464795,-1184.329507,-3849.070898,-77682.083497
277.467810,0.000000,-4589.276840,-80440.027290
277.470824,444.123565,888.247130,-79367.493593
277.473839,0.000000,2664.741391,-78754.617194
277.476853,-888.247130,6809.894666,-78294.959896
277.479868,1184.329507,3552.988522,-79520.712692
277.482882,-148.041188,3849.070898,-79827.150892
277.485897,296.082377,-4441.235652,-77528.864398
277.488911,-740.205942,-13323.706956,-81052.903688
277.491926,-1332.370696,-1628.453072,-81665.780087
277.494940,740.205942,10362.883188,-77835.302597
277.497955,-1036.288319,4737.318029,-78294.959896
277.500969,-888.247130,2664.741391,-79980.369991
277.503984,-296.082377,888.247130,-80133.589091
277.506998,-148.041188,-2072.576638,-78141.740796
277.509991,-1332.370696,-444.123565,-78601.398095
277.512984,148.041188,1480.411884,-79673.931792
277.515977,1036.288319,1332.370696,-78907.836294
277.518970,-1480.411884,4737.318029,-78294.959896
277.521963,-740.205942,5773.606348,-79673.931792
277.524956,1036.288319,444.123565,-78601.398095
277.527948,-1628.453072,-10214.842000,-77835.302597
277.530941,-2664.741391,-13619.789333,-79061.055394
277.533934,888.247130,-8438.347739,-79520.712692
277.536927,-148.041188,-4145.153275,-79061.055394
277.539920,-888.247130,-1628.453072,-78907.836294
277.542913,888.247130,2812.782580,-78294.959896
277.545906,-1776.494261,-3552.988522,-78601.398095
277.548899,0.000000,-9326.594869,-79061.055394
277.551891,-148.041188,-10066.800811,-79214.274493
277.554884,-1776.494261,-7994.224174,-79520.712692
277.557877,1036.288319,-3849.070898,-79673.931792
277.560870,148.041188,-2220.617826,-80899.684589
277.563863,-1332.370696,-2960.823768,-79214.274493
277.566856,-1776.494261,-6513.812290,-79061.055394
277.569849,740.205942,-8438.347739,-80440.027290
277.572842,-1480.411884,-7254.018232,-79520.712692
277.575834,-1332.370696,-9474.636058,-78294.959896
277.578827,296.082377,-6217.729913,-77682.083497
277.581805,-592.164754,-2812.782580,-79061.055394
277.584782,-1184.329507,-5033.400406,-78601.398095
277.587759,444.123565,-5033.400406,-78907.836294
277.590737,-296.082377,-3997.112087,-78294.959896
277.593714,-888.247130,-4737.318029,-79061.055394
277.596691,-296.082377,-6217.729913,-78601.398095
277.599669,-1184.329507,-4737.318029,-77835.302597
277.602646,1036.288319,3701.029710,-79673.931792
277.605623,-1776.494261,8438.347739,-79367.493593
277.608601,-444.123565,6217.729913,-79061.055394
277.611578,-296.082377,3404.947333,-79980.369991
277.614555,-1036.288319,-888.247130,-79061.055394
277.617533,-148.041188,-4441.235652,-80899.684589
277.620510,148.041188,-1924.535449,-79520.712692
277.623487,-1184.329507,1480.411884,-78754.617194
277.626465,888.247130,6365.771101,-77835.302597
277.629442,1776.494261,4145.153275,-80286.808190
277.632419,-1036.288319,-2516.700203,-79367.493593
277.635397,-1184.329507,-5477.523971,-79214.274493
277.638374,-1480.411884,1924.535449,-77988.521696
277.641351,444.123565,-1776.494261,-79367.493593
277.644329,2072.576638,2368.659014,-78907.836294
277.647306,-1480.411884,8734.430116,-79214.274493
277.650283,148.041188,9770.718434,-78448.178995
277.653261,-1036.288319,740.205942,-77988.521696
277.656238,-1480.411884,-1480.411884,-79827.150892
277.659215,740.205942,2368.659014,-78294.959896
277.662192,148.041188,2812.782580,-78754.617194
277.665170,148.041188,1628.453072,-78294.959896
277.668147,296.082377,2664.741391,-78907.836294
277.671124,-1036.288319,4589.276840,-80593.246390
277.674102,-148.041188,-4737.318029,-77988.521696
277.677145,1628.453072,-11251.130318,-77835.302597
277.680199,-2516.700203,-13619.789333,-79980.369991
277.683254,-1480.411884,-10807.006753,-80133.589091
277.686309,1184.329507,-4145.153275,-79061.055394
277.689363,-1184.329507,296.082377,-77988.521696
277.692418,1036.288319,2516.700203,-78141.740796
277.695472,1628.453072,-3404.947333,-79367.493593
277.698527,-1332.370696,-10510.924376,-79214.274493
277.701581,-888.247130,-13471.748144,-78294.959896
277.704636,-296.082377,-9918.759623,-79214.274493
277.707691,148.041188,-2960.823768,-79673.931792
277.710745,-296.082377,-740.205942,-79367.493593
277.713800,592.164754,-592.164754,-79367.493593
277.716854,148.041188,-10066.800811,-79520.712692
277.719909,888.247130,-8142.265362,-80133.589091
277.722963,-740.205942,-7994.224174,-77988.521696
277.726018,-296.082377,-8438.347739,-77682.083497
277.729073,-740.205942,-2664.741391,-78907.836294
277.732127,-444.123565,-2220.617826,-79673.931792
277.735182,-592.164754,-3404.947333,-79673.931792
277.738236,-1776.494261,-2960.823768,-78754.617194
277.741291,0.000000,-4441.235652,-78601.398095
277.744345,-1332.370696,-8290.306550,-79214.274493
277.747400,0.000000,-5773.606348,-77988.521696
277.750455,592.164754,1628.453072,-79673.931792
277.753509,-888.247130,9178.553681,-80133.589091
277.756564,1036.288319,8290.306550,-78754.617194
277.759618,-888.247130,6661.853478,-77682.083497
277.762673,148.041188,-2664.741391,-79061.055394
277.765727,-296.082377,-5625.565159,-79520.712692
277.768782,-148.041188,-5625.565159,-80593.246390
277.771836,-296.082377,1036.288319,-78754.617194
277.774875,-592.164754,10658.965565,-79520.712692
277.777914,-148.041188,7105.977043,-79367.493593
277.780953,-740.205942,7846.182985,-77375.645298
277.783992,0.000000,-888.247130,-76762.768900
277.787030,296.082377,-5181.441594,-79061.055394
277.790069,1480.411884,-5181.441594,-79980.369991
277.793108,-1776.494261,2812.782580,-80440.027290
277.796147,444.123565,10658.965565,-78907.836294
277.799186,148.041188,6217.729913,-78601.398095
277.802224,-592.164754,2072.576638,-78907.836294
277.805263,-148.041188,-444.123565,-80593.246390
277.808302,-1036.288319,-1332.370696,-78907.836294
277.811341,296.082377,-444.123565,-78754.617194
277.814380,148.041188,3701.029710,-79061.055394
277.817418,-296.082377,6513.812290,-78448.178995
277.820457,-296.082377,4885.359217,-79214.274493
277.823496,592.164754,-7402.059420,-79061.055394
277.826535,-2368.659014,-14508.036463,-79214.274493
277.829574,148.041188,-12731.542202,-79367.493593
277.832612,1776.494261,-8734.430116,-80440.027290
277.835651,-888.247130,-4737.318029,-79061.055394
277.838690,592.164754,3108.864956,-77375.645298
277.841729,-444.123565,-148.041188,-79214.274493
277.844768,-1184.329507,-6809.894666,-79980.369991
277.847806,444.123565,-11103.089130,-78601.398095
277.850845,-296.082377,-12287.418637,-78601.398095
277.853884,-444.123565,2072.576638,-77528.864398
277.856923,592.164754,5033.400406,-76915.987999
277.859962,-1332.370696,7402.059420,-77069.207099
277.863000,-296.082377,1924.535449,-77835.302597
277.866039,-592.164754,-4737.318029,-79520.712692
277.869078,-1036.288319,-9326.594869,-78754.617194
277.872109,-592.164754,-9178.553681,-78754.617194
277.875139,592.164754,-7846.182985,-79673.931792
277.878170,-296.082377,-2220.617826,-78448.178995
277.881201,-148.041188,-2960.823768,-79214.274493
277.884232,-888.247130,-2516.700203,-78294.959896
277.887263,0.000000,-3701.029710,-78754.617194
277.890293,0.000000,-9622.677246,-79673.931792
277.893324,-1184.329507,-6365.771101,-77988.521696
277.896355,-444.123565,2960.823768,-78601.398095
277.899386,-444.123565,7846.182985,-80899.684589
277.902416,-888.247130,9770.718434,-78754.617194
277.905447,296.082377,5625.565159,-77528.864398
277.908478,-1628.453072,-1036.288319,-79520.712692
277.911509,-1184.329507,-4737.318029,-80133.589091
277.914539,-296.082377,-4589.276840,-79061.055394
277.917570,740.205942,592.164754,-77682.083497
277.920601,148.041188,4885.359217,-78601.398095
277.923632,888.247130,5329.482782,-78141.740796
277.926663,-1332.370696,6217.729913,-78141.740796
277.929693,0.000000,-296.082377,-78294.959896
277.932724,296.082377,-6069.688724,-80440.027290
277.935755,148.041188,-3404.947333,-81972.218286
277.938786,-444.123565,4589.276840,-79673.931792
277.941816,-740.205942,5625.565159,-77528.864398
277.944847,148.041188,4145.153275,-79520.712692
277.947878,-1924.535449,1480.411884,-78294.959896
277.950909,0.000000,1628.453072,-78754.617194
277.953939,-2072.576638,-1628.453072,-79520.712692
277.956970,-1184.329507,-2220.617826,-79061.055394
277.960001,444.123565,2220.617826,-79520.712692
277.963032,-148.041188,6365.771101,-79061.055394
277.966063,296.082377,-3108.864956,-78294.959896
277.969091,-148.041188,-8882.471304,-79980.369991
277.972120,-444.123565,-11843.295072,-79367.493593
277.975148,-1184.329507,-12435.459826,-79827.150892
277.978177,-148.041188,-7550.100608,-79827.150892
277.981205,1924.535449,444.123565,-77375.645298
277.984234,-1036.288319,148.041188,-78601.398095
277.987262,-444.123565,-2516.700203,-79061.055394
277.990291,-1776.494261,-8586.388927,-78601.398095
277.993319,-148.041188,-9326.594869,-77835.302597
277.996348,148.041188,-9178.553681,-79673.931792
277.999376,148.041188,-4145.153275,-79980.369991
278.002405,0.000000,-2516.700203,-79214.274493
278.005433,-444.123565,888.247130,-79061.055394
278.008462,-444.123565,-3997.112087,-77988.521696
278.011490,-296.082377,-12139.377449,-79827.150892
278.014519,-1924.535449,-11547.212695,-79367.493593
278.017547,-740.205942,-7550.100608,-77988.521696
278.020576,-148.041188,-6217.729913,-77988.521696
278.023604,296.082377,-2516.700203,-79061.055394
278.026633,592.164754,148.041188,-79827.150892
278.029661,-2812.782580,-2516.700203,-79520.712692
278.032690,1332.370696,-10066.800811,-79367.493593
278.035718,1036.288319,-3108.864956,-79214.274493
278.038747,-2960.823768,2368.659014,-79061.055394
278.041775,148.041188,9918.759623,-79367.493593
278.044804,592.164754,9326.594869,-77835.302597
278.047832,-1036.288319,4885.359217,-77682.083497
278.050861,0.000000,1036.288319,-78601.398095
278.053889,-592.164754,-3701.029710,-79980.369991
278.056918,296.082377,-4293.194464,-79367.493593
278.059946,592.164754,2664.741391,-78294.959896
278.062975,-888.247130,6957.935855,-79061.055394
278.066005,-1628.453072,2220.617826,-78754.617194
278.069036,-1184.329507,-296.082377,-78754.617194
278.072066,-2664.741391,-2516.700203,-79061.055394
278.075097,-296.082377,-6513.812290,-79827.150892
278.078127,1628.453072,-3256.906145,-80286.808190
278.081158,-444.123565,592.164754,-80899.684589
278.084188,-888.247130,6809.894666,-78907.836294
278.087219,0.000000,3701.029710,-78294.959896
278.090249,-1628.453072,3701.029710,-79980.369991
278.093280,-1332.370696,-148.041188,-78601.398095
278.096310,-1480.411884,-1924.535449,-78907.836294
278.099341,148.041188,-2072.576638,-78754.617194
278.102371,-444.123565,4293.194464,-78601.398095
278.105402,-296.082377,-148.041188,-79827.150892
278.108432,296.082377,-5181.441594,-78601.398095
278.111463,-592.164754,-10066.800811,-77682.083497
278.114494,-444.123565,-10214.842000,-79520.712692
278.117524,1184.329507,-7698.141797,-78601.398095
278.120555,-148.041188,-1628.453072,-78601.398095
278.123585,-148.041188,-1332.370696,-78754.617194
278.126616,-740.205942,-3701.029710,-79061.055394
278.129646,-1776.494261,-7254.018232,-80593.246390
278.132677,-148.041188,-9770.718434,-77988.521696
278.135707,-2072.576638,-14211.954086,-78294.959896
278.138738,-592.164754,-2960.823768,-80899.684589
278.141768,1036.288319,-444.123565,-78448.178995
278.144799,296.082377,-5477.523971,-80440.027290
278.147829,-1776.494261,-5773.606348,-81512.560987
278.150860,592.164754,-8290.306550,-79520.712692
278.153890,-1776.494261,-10362.883188,-79520.712692
278.156921,-1924.535449,-7254.018232,-78907.836294
278.159951,1036.288319,-4145.153275,-78141.740796
278.163056,148.041188,-1480.411884,-77682.083497
278.166160,-296.082377,-148.041188,-78448.178995
278.169265,-296.082377,-2368.659014,-79214.274493
278.172370,-148.041188,-7994.224174,-78294.959896
278.175474,0.000000,-2960.823768,-78141.740796
278.178579,-2368.659014,4737.318029,-79980.369991
278.181684,-740.205942,7698.141797,-79520.712692
278.184788,1332.370696,6365.771101,-78907.836294
278.187893,-1184.329507,4885.359217,-80286.808190
278.190997,-888.247130,-888.247130,-79061.055394
278.194102,-444.123565,-3404.947333,-80746.465489
278.197207,148.041188,-296.082377,-79367.493593
278.200311,444.123565,3701.029710,-78294.959896
278.203416,-1628.453072,7254.018232,-81512.560987
278.206520,148.041188,3108.864956,-78754.617194
278.209625,-1332.370696,-6217.729913,-82431.875585
278.212730,-1332.370696,4145.153275,-77835.302597
278.215834,1776.494261,5033.400406,-75077.358804
278.218939,740.205942,1332.370696,-79061.055394
278.222044,-740.205942,4441.235652,-77835.302597
278.225148,-148.041188,7994.224174,-77835.302597
278.228253,148.041188,4293.194464,-78601.398095
278.231357,444.123565,2960.823768,-78601.398095
278.234462,0.000000,-2072.576638,-79980.369991
278.237567,-1184.329507,-4737.318029,-78601.398095
278.240671,1184.329507,3552.988522,-78907.836294
278.243776,740.205942,-1184.329507,-79827.150892
278.246880,-740.205942,-7846.182985,-77988.521696
278.249985,0.000000,-7550.100608,-78907.836294
278.253090,-296.082377,-10510.924376,-80286.808190
278.256194,1036.288319,-6365.771101,-78448.178995
278.259299,592.164754,-2368.659014,-77528.864398
278.262462,-1332.370696,-2220.617826,-78601.398095
278.265625,-296.082377,-1036.288319,-78754.617194
278.268788,296.082377,-2664.741391,-79061.055394
278.271951,-740.205942,-10807.006753,-78754.617194
278.275114,148.041188,-13471.748144,-79827.150892
278.278276,-444.123565,-2516.700203,-80440.027290
278.281439,1036.288319,592.164754,-78141.740796
278.284602,-148.041188,-4145.153275,-78141.740796
278.287765,-1036.288319,-9178.553681,-79061.055394
278.290928,-296.082377,-4885.359217,-77988.521696
278.294091,148.041188,-9622.677246,-79827.150892
278.297254,-1480.411884,-9918.759623,-77528.864398
278.300417,148.041188,-2368.659014,-79061.055394
278.303580,444.123565,-740.205942,-78448.178995
278.306743,-444.123565,444.123565,-78294.959896
278.309906,-444.123565,-3108.864956,-79367.493593
278.313069,-148.041188,-7254.018232,-78448.178995
278.316232,444.123565,-1776.494261,-79673.931792
278.319394,-740.205942,6513.812290,-79520.712692
278.322557,-296.082377,5625.565159,-79367.493593
278.325720,-740.205942,2960.823768,-79061.055394
278.328883,-444.123565,2960.823768,-78294.959896
278.332046,-1480.411884,-2664.741391,-80286.808190
278.335209,888.247130,-4293.194464,-79673.931792
278.338418,592.164754,-1480.411884,-79367.493593
278.341626,-740.205942,3404.947333,-79367.493593
278.344835,-888.247130,10214.842000,-78448.178995
278.348043,1036.288319,3849.070898,-78141.740796
278.351252,-148.041188,2220.617826,-78294.959896
278.354460,-1036.288319,-296.082377,-77528.864398
278.357669,-740.205942,-2368.659014,-78601.398095
278.360877,0.000000,5773.606348,-78294.959896
278.364086,-888.247130,8142.265362,-78754.617194
278.367294,-1036.288319,6069.688724,-78448.178995
278.370503,-740.205942,3997.112087,-78294.959896
278.373712,444.123565,-740.205942,-79367.493593
278.376920,-740.205942,-2220.617826,-78448.178995
278.380129,148.041188,2516.700203,-78907.836294
278.383337,740.205942,2368.659014,-79367.493593
278.386546,-148.041188,-3256.906145,-77682.083497
278.389754,-740.205942,-9178.553681,-78141.740796
278.392963,-296.082377,-8290.306550,-79367.493593
278.396171,148.041188,-5773.606348,-78754.617194
278.399380,-888.247130,-5329.482782,-78141.740796
278.402588,296.082377,-1480.411884,-77375.645298
278.405797,0.000000,-148.041188,-78907.836294
278.409006,-1776.494261,-2072.576638,-79367.493593
278.412214,-1480.411884,-10362.883188,-77682.083497
278.415423,-1184.329507,-8734.430116,-77069.207099
278.418631,296.082377,888.247130,-77528.864398
278.421840,592.164754,1332.370696,-76915.987999
278.425048,-444.123565,-5921.647536,-77528.864398
278.428257,-888.247130,-8882.471304,-79367.493593
278.431465,-444.123565,-4737.318029,-79367.493593
278.434674,-1184.329507,-8882.471304,-78448.178995
278.437883,1036.288319,-11399.171507,-79980.369991
278.441128,740.205942,-4589.276840,-79980.369991
278.444374,-1332.370696,-4885.359217,-78601.398095
278.447620,-888.247130,-1924.535449,-78754.617194
278.450866,0.000000,-5773.606348,-79061.055394
278.454111,-296.082377,-5329.482782,-78601.398095
278.457357,-592.164754,1036.288319,-79061.055394
278.460603,-1332.370696,7254.018232,-79367.493593
278.463849,-296.082377,7550.100608,-78448.178995
278.467094,592.164754,6069.688724,-77835.302597
278.470340,148.041188,3256.906145,-79061.055394
278.473586,-740.205942,-2516.700203,-79980.369991
278.476832,592.164754,-2960.823768,-79367.493593
278.480077,1036.288319,592.164754,-78448.178995
278.483323,-1480.411884,2960.823768,-80746.465489
278.486569,-444.123565,2812.782580,-80746.465489
278.489815,444.123565,-3256.906145,-79980.369991
278.493060,-1184.329507,-1480.411884,-80133.589091
278.496306,-1628.453072,1924.535449,-78141.740796
278.499552,148.041188,740.205942,-78448.178995
278.502798,592.164754,2960.823768,-80286.808190
278.506044,1036.288319,6513.812290,-80286.808190
278.509289,-444.123565,6513.812290,-78141.740796
278.512535,888.247130,-444.123565,-79673.931792
278.515781,-148.041188,-444.123565,-79520.712692
278.519027,-444.123565,-1480.411884,-78907.836294
278.522272,1036.288319,1628.453072,-79520.712692
278.525518,-1628.453072,-5181.441594,-78601.398095
278.528764,-888.247130,-7846.182985,-78141.740796
278.532010,296.082377,-7254.018232,-79214.274493
278.535255,-592.164754,-10066.800811,-79520.712692
278.538501,592.164754,-6957.935855,-79061.055394
278.541747,740.205942,-296.082377,-77835.302597
278.545022,-592.164754,-3108.864956,-78907.836294
278.548296,-444.123565,-7846.182985,-79520.712692
278.551571,1480.411884,-7402.059420,-79061.055394
278.554846,740.205942,-2516.700203,-79061.055394
278.558121,-148.041188,-1036.288319,-77682.083497
278.561396,-148.041188,2220.617826,-78294.959896
278.564670,-1628.453072,-2812.782580,-79061.055394
278.567945,-1332.370696,-7254.018232,-77988.521696
278.571220,444.123565,-5477.523971,-77375.645298
278.574495,-1332.370696,-9770.718434,-78448.178995
278.577769,296.082377,-10214.842000,-79061.055394
278.581044,-592.164754,-5329.482782,-79367.493593
278.584319,-740.205942,-2664.741391,-79061.055394
278.587594,-444.123565,888.247130,-79673.931792
278.590869,-296.082377,-6661.853478,-79061.055394
278.594143,-1480.411884,-3552.988522,-77988.521696
278.597418,-148.041188,1036.288319,-79061.055394
278.600693,-1184.329507,7994.224174,-78907.836294
278.603968,0.000000,7105.977043,-78141.740796
278.607242,1184.329507,4145.153275,-78448.178995
278.610517,1036.288319,1776.494261,-78294.959896
278.613792,-1480.411884,-2516.700203,-79520.712692
278.617067,-148.041188,-592.164754,-78141.740796
278.620342,-148.041188,3552.988522,-78754.617194
278.623616,-2368.659014,6809.894666,-78601.398095
278.626891,740.205942,1924.535449,-79061.055394
278.630166,740.205942,1628.453072,-79214.274493
278.633441,-1036.288319,-1480.411884,-78601.398095
278.636715,-296.082377,444.123565,-79214.274493
278.639990,740.205942,3997.112087,-79980.369991
278.643265,-1628.453072,5477.523971,-78601.398095
278.646540,-1776.494261,7994.224174,-78294.959896
278.649770,888.247130,6217.729913,-77682.083497
278.653004,-888.247130,148.041188,-78448.178995
278.656239,-444.123565,-2664.741391,-79520.712692
278.659473,148.041188,2072.576638,-78754.617194
278.662708,-444.123565,-592.164754,-78141.740796
278.665942,1036.288319,-6513.812290,-77835.302597
278.669177,-2516.700203,-9918.759623,-79214.274493
278.672411,-1036.288319,-10658.965565,-80440.027290
278.675646,148.041188,-5921.647536,-79980.369991
278.678880,-1332.370696,-4737.318029,-77835.302597
278.682115,740.205942,-2516.700203,-78141.740796
278.685349,148.041188,-1480.411884,-78448.178995
278.688584,-1628.453072,-4885.359217,-80133.589091
278.691818,-1184.329507,-5921.647536,-77222.426198
278.695053,-148.041188,-7994.224174,-77835.302597
278.698287,-592.164754,-9030.512492,-80899.684589
278.701522,-592.164754,-10066.800811,-79214.274493
278.704756,444.123565,-5033.400406,-79367.493593
278.707991,148.041188,-8586.388927,-80440.027290
278.711225,-148.041188,-11991.336260,-80286.808190
278.714460,0.000000,-6809.894666,-80133.589091
278.717694,-1776.494261,-7846.182985,-78754.617194
278.720929,-592.164754,-3256.906145,-78141.740796
278.724163,740.205942,2072.576638,-80133.589091
278.727398,444.123565,-4885.359217,-77682.083497
278.730632,-1036.288319,-2220.617826,-77988.521696
278.733867,444.123565,3256.906145,-78754.617194
278.737101,-296.082377,5921.647536,-78907.836294
278.740336,-444.123565,7402.059420,-78754.617194
278.743570,-740.205942,7402.059420,-77528.864398
278.746805,-296.082377,1332.370696,-79061.055394
278.750039,-2072.576638,-888.247130,-78601.398095
278.753243,1480.411884,888.247130,-77835.302597
278.756446,-296.082377,-1480.411884,-78601.398095
278.759649,-444.123565,8142.265362,-78448.178995
278.762853,592.164754,2072.576638,-79520.712692
278.766056,0.000000,-148.041188,-79520.712692
278.769259,-444.123565,296.082377,-80440.027290
278.772463,-1184.329507,296.082377,-80286.808190
278.775666,444.123565,5181.441594,-78754.617194
278.778870,1036.288319,7402.059420,-77835.302597
278.782073,-3404.947333,6217.729913,-79061.055394
278.785276,1036.288319,4441.235652,-78294.959896
278.788480,-592.164754,-444.123565,-78601.398095
278.791683,-1332.370696,-2960.823768,-80286.808190
278.794886,1332.370696,-444.123565,-79673.931792
278.798090,-296.082377,-5921.647536,-79214.274493
278.801293,-592.164754,-6513.812290,-78294.959896
278.804496,444.123565,-8734.430116,-78907.836294
278.807700,-592.164754,-9918.759623,-80899.684589
278.810903,888.247130,-4145.153275,-78448.178995
278.814106,-740.205942,-2516.700203,-77988.521696
278.817310,-1776.494261,-5033.400406,-78754.617194
278.820513,1184.329507,-1480.411884,-78907.836294
278.823716,0.000000,-8586.388927,-78754.617194
278.826920,-1776.494261,-13471.748144,-78141.740796
278.830123,592.164754,-2220.617826,-78907.836294
278.833326,296.082377,1924.535449,-78754.617194
278.836530,1036.288319,-3849.070898,-77069.207099
278.839733,-1480.411884,-8290.306550,-79520.712692
278.842936,0.000000,-6069.688724,-78907.836294
278.846140,888.247130,-9326.594869,-77375.645298
278.849343,-1184.329507,-10066.800811,-78754.617194
278.852546,-444.123565,-2220.617826,-78907.836294
278.855726,740.205942,-740.205942,-78448.178995
278.858906,-444.123565,-1480.411884,-78294.959896
278.862085,1628.453072,-3849.070898,-78294.959896
278.865265,-592.164754,-1776.494261,-80440.027290
278.868444,-1332.370696,3404.947333,-79367.493593
278.871624,444.123565,5329.482782,-78907.836294
278.874804,0.000000,4145.153275,-78448.178995
278.877983,-740.205942,3849.070898,-79061.055394
278.881163,592.164754,-1776.494261,-79673.931792
278.884342,-592.164754,-444.123565,-79520.712692
278.887522,888.247130,3997.112087,-79367.493593
278.890701,148.041188,9474.636058,-77069.207099
278.893881,-148.041188,8882.471304,-78907.836294
278.897061,-740.205942,-9030.512492,-81359.341888
278.900240,-1924.535449,-2812.782580,-80746.465489
278.903420,592.164754,5625.565159,-77069.207099
278.906599,-444.123565,3404.947333,-78601.398095
278.909779,444.123565,3256.906145,-79214.274493
278.912959,148.041188,10362.883188,-79367.493593
278.916138,-2812.782580,2664.741391,-78141.740796
278.919318,-2368.659014,0.000000,-78448.178995
278.922497,0.000000,-888.247130,-80440.027290
278.925677,-1036.288319,-592.164754,-78448.178995
278.928857,148.041188,-3997.112087,-77835.302597
278.932036,-444.123565,-7994.224174,-78294.959896
278.935216,-2220.617826,-9474.636058,-78754.617194
278.938395,-296.082377,-7698.141797,-79367.493593
278.941575,592.164754,-4885.359217,-78601.398095
278.944755,-1184.329507,-1480.411884,-77069.207099
278.947934,-1036.288319,-3108.864956,-77682.083497
278.951114,148.041188,-7994.224174,-78754.617194
278.954293,740.205942,-7994.224174,-79980.369991
278.957455,-888.247130,-12435.459826,-79367.493593
278.960617,-1332.370696,-4737.318029,-78294.959896
278.963779,888.247130,0.000000,-78907.836294
278.966941,1036.288319,444.123565,-77222.426198
278.970103,-148.041188,-7105.977043,-79980.369991
278.973265,-740.205942,-11251.130318,-78754.617194
278.976427,592.164754,-8882.471304,-78294.959896
278.979588,-1480.411884,-10807.006753,-79520.712692
278.982750,-1184.329507,-2368.659014,-79520.712692
278.985912,888.247130,2516.700203,-79214.274493
278.989074,592.164754,-6513.812290,-78754.617194
278.992236,444.123565,-1628.453072,-78294.959896
278.995398,0.000000,1628.453072,-79214.274493
278.998560,-888.247130,4145.153275,-79673.931792
279.001722,-740.205942,6069.688724,-77835.302597
279.004884,0.000000,4145.153275,-78294.959896
279.008045,-1184.329507,296.082377,-78907.836294
279.011207,148.041188,740.205942,-80133.589091
279.014369,0.000000,-1480.411884,-78141.740796
279.017531,-592.164754,148.041188,-78141.740796
279.020693,148.041188,-2812.782580,-80899.684589
279.023855,-444.123565,2516.700203,-82278.656485
279.027017,-888.247130,592.164754,-80593.246390
279.030179,1628.453072,1480.411884,-78754.617194
279.033340,-592.164754,2664.741391,-79520.712692
279.036502,-2220.617826,7994.224174,-79214.274493
279.039664,-2664.741391,7402.059420,-77835.302597
279.042826,592.164754,6661.853478,-78294.959896
279.045988,148.041188,2664.741391,-78754.617194
279.049150,-888.247130,-1036.288319,-78601.398095
279.052312,592.164754,1776.494261,-77682.083497
279.055474,888.247130,1332.370696,-79367.493593
279.058680,-148.041188,-9474.636058,-77682.083497
279.061886,-444.123565,-11843.295072,-78448.178995
279.065092,-740.205942,-8882.471304,-81206.122788
279.068299,148.041188,-5625.565159,-79827.150892
279.071505,-148.041188,-3404.947333,-78448.178995
279.074711,-1184.329507,-3701.029710,-77988.521696
279.077917,-2072.576638,-6365.771101,-79673.931792
279.081124,-148.041188,-5329.482782,-79520.712692
279.084330,-740.205942,-9770.718434,-79367.493593
279.087536,-740.205942,-6957.935855,-80286.808190
279.090742,444.123565,-4145.153275,-78907.836294
279.093949,148.041188,-4293.194464,-79367.493593
279.097155,-592.164754,-3552.988522,-78294.959896
279.100361,-1184.329507,-9474.636058,-78907.836294
279.103568,-148.041188,-10658.965565,-79980.369991
279.106774,1184.329507,-9622.677246,-78141.740796
279.109980,-148.041188,-2072.576638,-79520.712692
279.113186,148.041188,1036.288319,-78448.178995
279.116393,1480.411884,-3701.029710,-78601.398095
279.119599,-296.082377,-2072.576638,-79214.274493
279.122805,-740.205942,2072.576638,-79520.712692
279.126011,740.205942,7402.059420,-79673.931792
279.129218,-296.082377,5477.523971,-78294.959896
279.132424,-592.164754,4293.194464,-77222.426198
279.135630,-1036.288319,1184.329507,-78907.836294
279.138836,-296.082377,296.082377,-80133.589091
279.142043,888.247130,3552.988522,-78448.178995
279.145249,-1036.288319,2516.700203,-79061.055394
279.148455,0.000000,10214.842000,-77222.426198
279.151661,1332.370696,7254.018232,-78907.836294
279.154868,1480.411884,148.041188,-77682.083497
279.158074,-740.205942,444.123565,-78141.740796
279.161315,1332.370696,7254.018232,-80133.589091
279.164556,296.082377,5773.606348,-77375.645298
279.167797,-1776.494261,6661.853478,-80133.589091
279.171038,1628.453072,6217.729913,-79367.493593
279.174280,-592.164754,-740.205942,-77222.426198
279.177521,-592.164754,-444.123565,-78601.398095
279.180762,1036.288319,1184.329507,-79367.493593
279.184003,-1036.288319,-9030.512492,-79520.712692
279.187244,-740.205942,-8586.388927,-79367.493593
279.190485,-740.205942,-8142.265362,-78907.836294
279.193726,-740.205942,-8586.388927,-80593.246390
279.196968,148.041188,-4885.359217,-79214.274493
279.200209,0.000000,-592.164754,-77682.083497
279.203450,-3108.864956,-5181.441594,-78601.398095
279.206691,2516.700203,-4737.318029,-79367.493593
279.209932,-592.164754,-14063.912898,-81359.341888
279.213173,-1924.535449,-13027.624579,-79673.931792
279.216414,0.000000,1036.288319,-75996.673402
279.219656,296.082377,-296.082377,-78294.959896
279.222897,1184.329507,-7994.224174,-77682.083497
279.226138,-888.247130,-13767.830521,-80899.684589
279.229379,1036.288319,-10362.883188,-79520.712692
279.232620,-148.041188,-14804.118840,-78601.398095
279.235861,-1184.329507,-5921.647536,-81512.560987
279.239130,592.164754,-1184.329507,-79827.150892
279.242399,0.000000,-3997.112087,-78754.617194
279.245668,-1332.370696,-3552.988522,-78754.617194
279.248937,-1332.370696,1480.411884,-78907.836294
279.252206,-740.205942,5329.482782,-80133.589091
279.255475,1184.329507,7254.018232,-78294.959896
279.258744,-296.082377,4885.359217,-77682.083497
279.262013,-1332.370696,2960.823768,-77988.521696
279.265282,592.164754,1332.370696,-79673.931792
279.268551,592.164754,2516.700203,-79827.150892
279.271819,-740.205942,296.082377,-79827.150892
279.275088,0.000000,7105.977043,-77988.521696
279.278357,-148.041188,4885.359217,-79980.369991
279.281626,-1184.329507,-2960.823768,-79214.274493
279.284895,-740.205942,-888.247130,-78601.398095
279.288164,-888.247130,2812.782580,-79061.055394
279.291433,-740.205942,4589.276840,-79061.055394
279.294702,-1036.288319,6957.935855,-79827.150892
279.297971,740.205942,6809.894666,-78907.836294
279.301240,148.041188,-740.205942,-78448.178995
279.304509,-740.205942,-296.082377,-78601.398095
279.307778,-296.082377,1480.411884,-79214.274493
279.311047,-1332.370696,-8438.347739,-79214.274493
279.314316,-148.041188,-8734.430116,-77375.645298
279.317584,-444.123565,-7994.224174,-79214.274493
279.320853,-2368.659014,-7698.141797,-79827.150892
279.324122,1480.411884,-3108.864956,-78601.398095
279.327391,-1776.494261,-740.205942,-78601.398095
279.330660,-2072.576638,-2960.823768,-78294.959896
279.333929,1480.411884,-7846.182985,-77988.521696
279.337198,296.082377,-1776.494261,-78294.959896
279.340467,-1480.411884,-3849.070898,-77835.302597
279.343758,-1036.288319,-740.205942,-78294.959896
279.347048,740.205942,-592.164754,-78601.398095
279.350339,-888.247130,-4737.318029,-79673.931792
279.353630,148.041188,-8438.347739,-78448.178995
279.356920,1036.288319,-8142.265362,-77528.864398
279.360211,-888.247130,-11991.336260,-79520.712692
279.363502,-888.247130,-5033.400406,-78294.959896
279.366792,-1480.411884,-592.164754,-80440.027290
279.370083,1184.329507,-7105.977043,-79367.493593
279.373374,-1036.288319,-888.247130,-79673.931792
279.376664,-1036.288319,3849.070898,-80593.246390
279.379955,444.123565,6069.688724,-78907.836294
279.383245,148.041188,6661.853478,-77528.864398
279.386536,-296.082377,3108.864956,-78907.836294
279.389827,-1332.370696,-2072.576638,-79214.274493
279.393117,-740.205942,2220.617826,-80133.589091
279.396408,296.082377,6365.771101,-79367.493593
279.399699,-1332.370696,5477.523971,-77069.207099
279.402989,-148.041188,740.205942,-79827.150892
279.406280,740.205942,4145.153275,-79061.055394
279.409571,-296.082377,2664.741391,-78907.836294
279.412861,-1480.411884,592.164754,-78907.836294
279.416152,-592.164754,5773.606348,-78907.836294
279.419443,-2664.741391,8882.471304,-79367.493593
279.422733,-888.247130,6365.771101,-79367.493593
279.426024,0.000000,888.247130,-78448.178995
279.429315,-592.164754,-592.164754,-79520.712692
279.432605,148.041188,-1628.453072,-78907.836294
279.435896,-1480.411884,-5773.606348,-79520.712692
279.439187,1184.329507,-8438.347739,-78294.959896
279.442477,-2368.659014,-10807.006753,-78448.178995
279.445768,-592.164754,-7846.182985,-80133.589091
279.449075,1776.494261,-5625.565159,-79367.493593
279.452383,-2960.823768,-1776.494261,-77682.083497
279.455690,1332.370696,-1776.494261,-78448.178995
279.458998,148.041188,-8142.265362,-79367.493593
279.462305,-1480.411884,-5329.482782,-77835.302597
279.465612,592.164754,-2960.823768,-77528.864398
279.468920,-1332.370696,-7846.182985,-79520.712692
279.472227,-296.082377,-8734.430116,-79520.712692
279.475535,-148.041188,-3997.112087,-79214.274493
279.478842,-592.164754,-7105.977043,-77682.083497
279.482150,0.000000,-14508.036463,-79061.055394
279.485457,2072.576638,-10807.006753,-80286.808190
279.488764,296.082377,-2072.576638,-79214.274493
279.492072,-444.123565,-1332.370696,-79673.931792
279.495379,444.123565,-3108.864956,-80133.589091
279.498687,-2072.576638,-444.123565,-77375.645298
279.501994,-296.082377,3552.988522,-79367.493593
279.505301,1036.288319,7994.224174,-78907.836294
279.508609,-888.247130,5773.606348,-78754.617194
279.511916,296.082377,3849.070898,-78294.959896
279.515224,-1480.411884,888.247130,-78754.617194
279.518531,296.082377,-1480.411884,-80133.589091
279.521838,296.082377,-1036.288319,-78294.959896
279.525146,0.000000,148.041188,-79061.055394
279.528453,-444.123565,7105.977043,-79520.712692
279.531761,592.164754,1628.453072,-80133.589091
279.535068,-296.082377,-1924.535449,-82125.437386
279.538376,-1480.411884,3997.112087,-79673.931792
279.541683,-1184.329507,-148.041188,-78448.178995
279.544990,-592.164754,4737.318029,-79367.493593
279.548298,296.082377,9030.512492,-79061.055394
279.551605,-592.164754,1776.494261,-78141.740796
279.554925,444.123565,148.041188,-79061.055394
279.558245,148.041188,3849.070898,-79827.150892
279.561565,-1628.453072,-9178.553681,-79367.493593
279.564885,1628.453072,-9326.594869,-77528.864398
279.568205,0.000000,-9474.636058,-78601.398095
279.571525,-1036.288319,-9178.553681,-80746.465489
279.574845,592.164754,-2812.782580,-77988.521696
279.578165,-296.082377,148.041188,-78448.178995
279.581485,-1924.535449,-4293.194464,-79214.274493
279.584805,0.000000,-5329.482782,-79214.274493
279.588125,0.000000,-11695.253884,-79214.274493
279.591445,-740.205942,-7105.977043,-80133.589091
279.594765,-1480.411884,-6957.935855,-80286.808190
279.598085,-740.205942,-7254.018232,-79673.931792
279.601405,0.000000,-2960.823768,-79520.712692
279.604725,148.041188,-11251.130318,-79367.493593
279.608045,-1628.453072,-12583.501014,-78141.740796
279.611365,-1776.494261,-7254.018232,-77988.521696
279.614685,296.082377,-1332.370696,-78294.959896
279.618005,1184.329507,-1924.535449,-79980.369991
279.621325,-888.247130,-1332.370696,-78601.398095
279.624645,148.041188,4293.194464,-78141.740796
279.627965,-1628.453072,5625.565159,-79367.493593
279.631285,148.041188,4737.318029,-78907.836294
279.634605,1036.288319,4293.194464,-78141.740796
279.637925,-592.164754,-148.041188,-79214.274493
279.641245,-1924.535449,-2072.576638,-80593.246390
279.644565,444.123565,-592.164754,-78907.836294
279.647885,-148.041188,1036.288319,-78907.836294
279.651205,-444.123565,4589.276840,-77528.864398
279.654525,-444.123565,7846.182985,-78601.398095
279.657845,592.164754,296.082377,-78601.398095
279.661170,-1036.288319,-444.123565,-78907.836294
279.664499,1776.494261,5329.482782,-77835.302597
279.667828,444.123565,9622.677246,-77835.302597
279.671158,-2516.700203,6957.935855,-79980.369991
279.674487,1332.370696,3552.988522,-77682.083497
279.677816,592.164754,592.164754,-79061.055394
279.681145,-1480.411884,-148.041188,-79673.931792
279.684474,1036.288319,-2812.782580,-78754.617194
279.687803,740.205942,-10658.965565,-78448.178995
279.691132,-1480.411884,-10658.965565,-78448.178995
279.694461,296.082377,-7254.018232,-79367.493593
279.697791,-740.205942,-5477.523971,-79980.369991
279.701120,-888.247130,148.041188,-77682.083497
279.704449,148.041188,-4441.235652,-78754.617194
279.707778,-1480.411884,-7402.059420,-78754.617194
279.711107,592.164754,-4885.359217,-77528.864398
279.714436,296.082377,-10955.047942,-78601.398095
279.717765,148.041188,-5477.523971,-77682.083497
279.721095,-740.205942,1628.453072,-78448.178995
279.724424,-592.164754,-4145.153275,-78601.398095
279.727753,-296.082377,-9178.553681,-78294.959896
279.731082,-1036.288319,-13027.624579,-80593.246390
279.734411,0.000000,-11399.171507,-77682.083497
279.737740,-296.082377,-6513.812290,-79520.712692
279.741069,-444.123565,-2812.782580,-81512.560987
279.744398,-148.041188,-4737.318029,-78601.398095
279.747728,0.000000,3849.070898,-80440.027290
279.751057,-1924.535449,7846.182985,-79980.369991
279.754386,296.082377,4145.153275,-78907.836294
279.757715,888.247130,3552.988522,-78754.617194
279.761044,1332.370696,-1776.494261,-78907.836294
279.764373,-1184.329507,-2960.823768,-79367.493593
279.767709,1628.453072,1332.370696,-79827.150892
279.771044,0.000000,4293.194464,-79520.712692
279.774379,-148.041188,1924.535449,-77835.302597
279.777715,-888.247130,5477.523971,-79520.712692
279.781050,-592.164754,3997.112087,-79520.712692
279.784385,-1184.329507,1480.411884,-79214.274493
279.787721,-296.082377,4737.318029,-78754.617194
279.791056,-1036.288319,9474.636058,-78754.617194
279.794391,148.041188,8438.347739,-78294.959896
279.797727,-148.041188,4441.235652,-79061.055394
279.801062,-1480.411884,2220.617826,-78294.959896
279.804397,296.082377,592.164754,-79061.055394
279.807733,-888.247130,-12139.377449,-79214.274493
279.811068,296.082377,-11103.089130,-78907.836294
279.814403,296.082377,-10066.800811,-78601.398095
279.817739,-1480.411884,-8882.471304,-80133.589091
279.821074,740.205942,-3404.947333,-78601.398095
279.824410,-1332.370696,-592.164754,-78141.740796
279.827745,-1628.453072,-5773.606348,-79214.274493
279.831080,296.082377,-6365.771101,-80286.808190
279.834416,-888.247130,-9918.759623,-78907.836294
279.837751,-444.123565,-11547.212695,-78907.836294
279.841086,-444.123565,-3108.864956,-79214.274493
279.844422,-888.247130,-4145.153275,-77988.521696
279.847757,148.041188,-7254.018232,-79520.712692
279.851092,592.164754,-12731.542202,-79520.712692
279.854428,0.000000,-10362.883188,-78601.398095
279.857763,-1184.329507,-9178.553681,-78754.617194
279.861098,-444.123565,-1480.411884,-78448.178995
279.864434,888.247130,-4441.235652,-78294.959896
279.867769,-2072.576638,1776.494261,-79061.055394
279.871105,0.000000,9326.594869,-79061.055394
279.874392,592.164754,9326.594869,-79214.274493
279.877679,-148.041188,4293.194464,-77988.521696
279.880967,-2220.617826,5329.482782,-77375.645298
279.884254,-2368.659014,148.041188,-79367.493593
279.887542,888.247130,-1628.453072,-79061.055394
279.890829,1776.494261,6957.935855,-78754.617194
279.894117,444.123565,9326.594869,-79673.931792
279.897404,-1776.494261,3404.947333,-78754.617194
279.900692,-740.205942,8438.347739,-78907.836294
279.903979,-444.123565,4737.318029,-77069.207099
279.907267,444.123565,1036.288319,-76149.892501
279.910554,-2960.823768,6661.853478,-79520.712692
279.913841,-444.123565,7994.224174,-79980.369991
279.917129,-148.041188,4145.153275,-79673.931792
279.920416,148.041188,1332.370696,-79061.055394
279.923704,0.000000,592.164754,-78448.178995
279.926991,-1036.288319,-6661.853478,-78601.398095
279.930279,888.247130,-13767.830521,-77069.207099
279.933566,-592.164754,-12583.501014,-79980.369991
279.936854,-1332.370696,-7402.059420,-80593.246390
279.940141,1332.370696,-3404.947333,-78294.959896
279.943429,-1480.411884,-2664.741391,-78754.617194
279.946716,296.082377,740.205942,-78601.398095
279.950003,-888.247130,-6069.688724,-79061.055394
279.953291,-1480.411884,-2664.741391,-78601.398095
279.956578,1480.411884,444.123565,-75383.797003
279.959866,-444.123565,1036.288319,-77988.521696
279.963153,-1332.370696,-5033.400406,-78141.740796
279.966441,740.205942,1036.288319,-75537.016103
279.969728,-1184.329507,-7550.100608,-77682.083497
279.973016,-1184.329507,-12731.542202,-78601.398095
279.976303,148.041188,-5033.400406,-78754.617194
279.979603,296.082377,-1480.411884,-79367.493593
279.982902,1036.288319,-4441.235652,-77835.302597
279.986202,-1184.329507,4441.235652,-79061.055394
279.989501,-2368.659014,8142.265362,-78601.398095
279.992801,1332.370696,9030.512492,-79061.055394
279.996100,444.123565,4589.276840,-79061.055394
279.999400,-1924.535449,-2664.741391,-79367.493593
280.002699,-1184.329507,-1036.288319,-79673.931792
280.005999,-592.164754,-4145.153275,-79214.274493
280.009298,444.123565,-296.082377,-77375.645298
280.012598,0.000000,2664.741391,-79827.150892
280.015897,-1480.411884,4885.359217,-78294.959896
280.019197,0.000000,5329.482782,-78294.959896
280.022496,-888.247130,0.000000,-80899.684589
280.025795,444.123565,4885.359217,-77835.302597
280.029095,-444.123565,9770.718434,-78294.959896
280.032394,-1480.411884,7254.018232,-78601.398095
280.035694,296.082377,5181.441594,-77988.521696
280.038993,-148.041188,2220.617826,-78294.959896
280.042293,148.041188,-2516.700203,-78907.836294
280.045592,-888.247130,-12139.377449,-79520.712692
280.048892,-444.123565,-15692.365970,-78601.398095
280.052191,-444.123565,-12287.418637,-79214.274493
280.055491,-740.205942,-7254.018232,-79827.150892
280.058800,-148.041188,-2368.659014,-77988.521696
280.062110,444.123565,1924.535449,-77988.521696
280.065419,-2664.741391,-148.041188,-79214.274493
280.068728,148.041188,-5181.441594,-78448.178995
280.072038,592.164754,-5181.441594,-78141.740796
280.075347,-444.123565,-4441.235652,-76609.549800
280.078656,-1332.370696,-6957.935855,-77988.521696
280.081966,-1184.329507,-3108.864956,-78601.398095
280.085275,1184.329507,-3404.947333,-77682.083497
280.088584,-148.041188,-9770.718434,-78448.178995
280.091894,444.123565,-9474.636058,-78907.836294
280.095203,-296.082377,-3997.112087,-78601.398095
280.098512,-1184.329507,-7254.018232,-80286.808190
280.101821,444.123565,-2960.823768,-78754.617194
280.105131,444.123565,7402.059420,-79214.274493
280.108440,-1776.494261,10510.924376,-80133.589091
280.111749,148.041188,6217.729913,-77988.521696
280.115059,592.164754,1480.411884,-78754.617194
280.118368,-1924.535449,-2960.823768,-80286.808190
280.121677,-888.247130,-4589.276840,-80899.684589
280.124987,-1480.411884,888.247130,-79827.150892
280.128296,-444.123565,-1036.288319,-79980.369991
280.131605,-740.205942,2368.659014,-81665.780087
280.134915,1036.288319,9474.636058,-78754.617194
280.138224,-296.082377,5033.400406,-77835.302597
280.141533,296.082377,-740.205942,-78754.617194
280.144843,1184.329507,6513.812290,-79061.055394
280.148152,-740.205942,5625.565159,-79214.274493
280.151461,-740.205942,4293.194464,-78907.836294
280.154771,1036.288319,5329.482782,-78754.617194
280.158080,740.205942,1628.453072,-79367.493593
280.161389,-1924.535449,-10214.842000,-78294.959896
280.164705,1628.453072,-13915.871710,-78754.617194
280.168021,-740.205942,-15692.365970,-79520.712692
280.171336,-2368.659014,-10214.842000,-79673.931792
280.174652,2072.576638,-2072.576638,-78907.836294
280.177968,-1776.494261,-444.123565,-78294.959896
280.181283,-3256.906145,-1628.453072,-78448.178995
280.184599,1776.494261,-10658.965565,-79980.369991
280.187914,-592.164754,-10807.006753,-80746.465489
280.191230,592.164754,-9474.636058,-78294.959896
280.194546,1036.288319,-9030.512492,-79061.055394
280.197861,-1480.411884,-4885.359217,-79214.274493
280.201177,-1480.411884,-5477.523971,-77682.083497
280.204492,1628.453072,-11399.171507,-79367.493593
280.207808,-444.123565,-9622.677246,-80286.808190
280.211124,-1628.453072,-7402.059420,-79061.055394
280.214439,592.164754,-7105.977043,-79673.931792
280.217755,740.205942,-1332.370696,-79980.369991
280.221071,-740.205942,7698.141797,-78754.617194
280.224386,-740.205942,12731.542202,-78601.398095
280.227702,592.164754,8142.265362,-78141.740796
280.231017,-148.041188,740.205942,-78754.617194
280.234333,-1776.494261,-4293.194464,-79520.712692
280.237649,444.123565,-7550.100608,-80746.465489
280.240964,1332.370696,-1776.494261,-78448.178995
280.244280,-444.123565,9474.636058,-76762.768900
280.247595,-296.082377,11103.089130,-78141.740796
280.250911,1036.288319,2072.576638,-79980.369991
280.254227,-888.247130,2516.700203,-79980.369991
280.257542,-2812.782580,2072.576638,-78601.398095
280.260858,0.000000,2516.700203,-77988.521696
280.264174,-2072.576638,4293.194464,-79367.493593
280.267489,0.000000,6365.771101,-80133.589091
280.270809,1924.535449,6069.688724,-78448.178995
280.274129,-2516.700203,1036.288319,-78601.398095
280.277449,-592.164754,-12435.459826,-79520.712692
280.280769,148.041188,-16728.654289,-79367.493593
280.284088,-888.247130,-12287.418637,-79061.055394
280.287408,-1480.411884,-7402.059420,-79214.274493
280.290728,1184.329507,-1628.453072,-79520.712692
280.294048,-2220.617826,2516.700203,-77528.864398
280.297368,-1184.329507,-2220.617826,-78754.617194
280.300688,-888.247130,-5625.565159,-80746.465489
280.304007,-592.164754,-10066.800811,-76609.549800
280.307327,1184.329507,-6661.853478,-75996.673402
280.310647,-148.041188,-4441.235652,-78294.959896
280.313967,444.123565,-6365.771101,-77835.302597
280.317287,-444.123565,-6513.812290,-79061.055394
280.320606,-148.041188,-8142.265362,-81052.903688
280.323926,-444.123565,-10066.800811,-78294.959896
280.327246,-1184.329507,-7994.224174,-79673.931792
280.330566,148.041188,-7550.100608,-79061.055394
280.333886,-592.164754,1628.453072,-78907.836294
280.337206,-1332.370696,11399.171507,-79673.931792
280.340525,-148.041188,15100.201217,-78448.178995
280.343845,-296.082377,7698.141797,-79367.493593
280.347165,-1036.288319,2368.659014,-77988.521696
280.350485,-740.205942,-1628.453072,-79673.931792
280.353805,-444.123565,-7698.141797,-79214.274493
280.357125,148.041188,-444.123565,-79673.931792
280.360444,0.000000,19837.519246,-76456.330700
280.363764,592.164754,7994.224174,-76303.111601
280.367084,-2220.617826,-592.164754,-79827.150892
280.370404,-592.164754,6513.812290,-79520.712692
280.373724,3404.947333,7254.018232,-77375.645298
280.376997,-1332.370696,296.082377,-78448.178995
280.380271,1776.494261,6809.894666,-78141.740796
280.383545,1184.329507,7254.018232,-79061.055394
280.386818,-3256.906145,2516.700203,-78448.178995
280.390092,-888.247130,-4293.194464,-78754.617194
280.393366,888.247130,-13915.871710,-78294.959896
280.396639,-148.041188,-18505.148550,-79520.712692
280.399913,-296.082377,-12435.459826,-80593.246390
280.403186,0.000000,-2664.741391,-79061.055394
280.406460,-1924.535449,-1184.329507,-78907.836294
280.409734,2812.782580,592.164754,-78294.959896
280.413007,-1036.288319,-8882.471304,-81206.122788
280.416281,-2220.617826,-8142.265362,-79673.931792
280.419555,740.205942,-10658.965565,-77835.302597
280.422828,444.123565,-12731.542202,-79980.369991
280.426102,444.123565,-7105.977043,-79214.274493
280.429375,296.082377,-5921.647536,-79520.712692
280.432649,-1184.329507,-8734.430116,-80286.808190
280.435923,1332.370696,-8290.306550,-79061.055394
280.439196,-740.205942,-4145.153275,-78294.959896
280.442470,-888.247130,-9474.636058,-77528.864398
280.445744,592.164754,1776.494261,-80286.808190
280.449017,-1480.411884,11695.253884,-79520.712692
280.452291,-296.082377,12139.377449,-79061.055394
280.455565,1628.453072,8586.388927,-78601.398095
280.458838,444.123565,2664.741391,-78141.740796
280.462112,888.247130,-5181.441594,-78294.959896
280.465385,-1184.329507,-6513.812290,-81206.122788
280.468659,-740.205942,2368.659014,-77375.645298
280.471933,-296.082377,4885.359217,-78754.617194
280.475206,-740.205942,5773.606348,-81359.341888
280.478480,-1184.329507,9622.677246,-79061.055394
280.481716,740.205942,3701.029710,-79367.493593
280.484952,444.123565,0.000000,-79061.055394
280.488188,0.000000,1776.494261,-78754.617194
280.491424,-1924.535449,4589.276840,-79367.493593
280.494660,444.123565,5181.441594,-79520.712692
280.497896,592.164754,3404.947333,-80440.027290
280.501132,-1184.329507,-6809.894666,-78294.959896
280.504368,-148.041188,-13175.665768,-76762.768900
280.507604,-444.123565,-16580.613101,-79367.493593
280.510840,-592.164754,-12139.377449,-79367.493593
280.514077,1332.370696,-2220.617826,-78294.959896
280.517313,-3108.864956,-148.041188,-78601.398095
280.520549,-296.082377,740.205942,-77835.302597
280.523785,592.164754,-888.247130,-79980.369991
280.527021,-1184.329507,-11547.212695,-77222.426198
280.530257,740.205942,-6661.853478,-75996.673402
280.533493,-888.247130,-6513.812290,-78294.959896
280.536729,-592.164754,-9178.553681,-77988.521696
280.539965,-148.041188,-6365.771101,-80746.465489
280.543201,-888.247130,-6069.688724,-81052.903688
280.546437,148.041188,-8438.347739,-77988.521696
280.549673,1036.288319,-6365.771101,-77988.521696
280.552909,0.000000,-6217.729913,-78141.740796
280.556145,148.041188,-148.041188,-79673.931792
280.559381,-1776.494261,11399.171507,-80899.684589
280.562617,1036.288319,13175.665768,-79061.055394
280.565853,-1184.329507,7254.018232,-78601.398095
280.569089,-888.247130,-740.205942,-79214.274493
280.572325,-2960.823768,-4145.153275,-77988.521696
280.575562,-3404.947333,-3997.112087,-80286.808190
280.578798,-1184.329507,-6217.729913,-79673.931792
280.582034,-592.164754,740.205942,-81665.780087
280.585286,-1480.411884,13323.706956,-79214.274493
280.588539,-296.082377,3849.070898,-76915.987999
280.591792,-296.082377,-2960.823768,-81359.341888
280.595044,740.205942,1036.288319,-79520.712692
280.598297,-1036.288319,1776.494261,-77835.302597
280.601550,-1924.535449,-740.205942,-79673.931792
280.604802,1332.370696,7105.977043,-80440.027290
280.608055,-148.041188,3552.988522,-79367.493593
280.611308,-296.082377,-12435.459826,-77375.645298
280.614560,-1628.453072,-16136.489536,-78141.740796
280.617813,740.205942,-13323.706956,-80286.808190
280.621065,1924.535449,-7846.182985,-79061.055394
280.624318,-1628.453072,-888.247130,-79061.055394
280.627571,148.041188,6957.935855,-78448.178995
280.630823,-888.247130,-1332.370696,-77682.083497
280.634076,-888.247130,-3404.947333,-77528.864398
280.637329,-1036.288319,-11251.130318,-79980.369991
280.640581,0.000000,-11843.295072,-79367.493593
280.643834,-888.247130,-8438.347739,-79061.055394
280.647087,0.000000,-7402.059420,-79980.369991
280.650339,-1332.370696,-7994.224174,-79673.931792
280.653592,1332.370696,-7402.059420,-80133.589091
280.656845,-148.041188,-5181.441594,-78601.398095
280.660097,148.041188,-9770.718434,-78448.178995
280.663350,-1776.494261,888.247130,-78294.959896
280.666603,296.082377,9770.718434,-78907.836294
280.669855,-148.041188,13619.789333,-79214.274493
280.673108,592.164754,9326.594869,-77988.521696
280.676361,-1628.453072,4737.318029,-79367.493593
280.679613,-3701.029710,-888.247130,-79214.274493
280.682866,-592.164754,-4145.153275,-78907.836294
280.686118,1332.370696,3404.947333,-76303.111601
280.689375,-592.164754,444.123565,-79061.055394
280.692642,-2516.700203,-148.041188,-79520.712692
280.695909,-1628.453072,8734.430116,-79367.493593
280.699176,148.041188,5329.482782,-79367.493593
280.702443,-148.041188,888.247130,-79520.712692
280.705710,1480.411884,2516.700203,-79673.931792
280.708977,-888.247130,4145.153275,-77988.521696
280.712244,-1332.370696,5477.523971,-78754.617194
280.715511,1924.535449,1184.329507,-80133.589091
280.718778,0.000000,-10955.047942,-78294.959896
280.722045,-2664.741391,-15840.407159,-77682.083497
280.725312,740.205942,-14211.954086,-79980.369991
280.728579,-740.205942,-9474.636058,-79367.493593
280.731846,740.205942,-740.205942,-77835.302597
280.735113,2072.576638,-296.082377,-77682.083497
280.738380,-1480.411884,444.123565,-79980.369991
280.741647,148.041188,-9918.759623,-81206.122788
280.744914,-740.205942,-14508.036463,-79367.493593
280.748181,-740.205942,-10214.842000,-80746.465489
280.751448,-148.041188,-9622.677246,-78141.740796
280.754715,-148.041188,-5921.647536,-77988.521696
280.757982,-148.041188,-4589.276840,-79520.712692
280.761249,1036.288319,-6069.688724,-78141.740796
280.764516,1036.288319,-1628.453072,-78601.398095
280.767783,-148.041188,-8586.388927,-77528.864398
280.771050,-2072.576638,-296.082377,-78141.740796
280.774317,-592.164754,10510.924376,-79061.055394
280.777584,1332.370696,13027.624579,-78754.617194
280.780851,-592.164754,11251.130318,-78141.740796
280.784118,-296.082377,3404.947333,-79367.493593
280.787385,1628.453072,-740.205942,-79061.055394
280.790652,-2220.617826,-5329.482782,-79214.274493
280.793883,1480.411884,-8882.471304,-78448.178995
280.797114,-1036.288319,4589.276840,-79061.055394
280.800345,-296.082377,12731.542202,-79214.274493
280.803576,-592.164754,10955.047942,-75843.454302
280.806807,1036.288319,3108.864956,-79673.931792
280.810038,148.041188,3256.906145,-80286.808190
280.813269,592.164754,2664.741391,-78141.740796
280.816500,-2220.617826,-296.082377,-79980.369991
280.819731,296.082377,5181.441594,-79061.055394
280.822962,1184.329507,296.082377,-78294.959896
280.826193,-740.205942,-12435.459826,-78294.959896
280.829424,-1776.494261,-15988.448347,-78294.959896
280.832655,592.164754,-13175.665768,-79520.712692
280.835886,740.205942,-9030.512492,-79520.712692
280.839117,-1776.494261,-1776.494261,-79061.055394
280.842348,1628.453072,-1036.288319,-77988.521696
280.845579,-740.205942,-8586.388927,-79673.931792
280.848810,-2072.576638,-6957.935855,-79980.369991
280.852041,-888.247130,-7846.182985,-78294.959896
280.855272,296.082377,-12879.583391,-79673.931792
280.858503,444.123565,-7105.977043,-79061.055394
280.861734,740.205942,-7846.182985,-79214.274493
280.864965,-740.205942,-9770.718434,-79214.274493
280.868196,-740.205942,-3404.947333,-78141.740796
280.871398,-444.123565,-7105.977043,-78141.740796
280.874600,-592.164754,-3849.070898,-78448.178995
280.877802,-296.082377,5921.647536,-80440.027290
280.881003,-1332.370696,10510.924376,-79214.274493
280.884205,740.205942,11103.089130,-78754.617194
280.887407,888.247130,7105.977043,-78294.959896
280.890608,-1184.329507,-2664.741391,-78294.959896
280.893810,592.164754,-3404.947333,-79827.150892
280.897012,-1924.535449,0.000000,-79367.493593
280.900213,-888.247130,-2664.741391,-79214.274493
280.903415,444.123565,5625.565159,-78601.398095
280.906617,1332.370696,9178.553681,-78601.398095
280.909819,-2220.617826,3256.906145,-79827.150892
280.913020,1036.288319,4589.276840,-79061.055394
280.916222,888.247130,3997.112087,-79673.931792
280.919424,-1332.370696,2812.782580,-78601.398095
280.922625,888.247130,4293.194464,-78907.836294
280.925827,592.164754,-888.247130,-79367.493593
280.929029,444.123565,-11399.171507,-77988.521696
280.932231,-888.247130,-15100.201217,-78141.740796
280.935432,-888.247130,-15396.283594,-80133.589091
280.938634,0.000000,-10066.800811,-79827.150892
280.941836,0.000000,-1480.411884,-78601.398095
280.945037,-740.205942,1036.288319,-79214.274493
280.948239,296.082377,0.000000,-79061.055394
280.951441,444.123565,-6957.935855,-79520.712692
280.954643,-1628.453072,-8734.430116,-77988.521696
280.957844,-148.041188,-10807.006753,-79367.493593
280.961046,-444.123565,-7846.182985,-77835.302597
280.964248,-148.041188,-6809.894666,-79367.493593
280.967449,-1332.370696,-5921.647536,-79214.274493
280.970651,1184.329507,-5921.647536,-78448.178995
280.973830,888.247130,-3552.988522,-78294.959896
280.977009,-1776.494261,-6513.812290,-78294.959896
280.980188,-148.041188,2812.782580,-79827.150892
280.983366,-592.164754,10658.965565,-80440.027290
280.986545,740.205942,10362.883188,-78907.836294
280.989724,1924.535449,10066.800811,-78141.740796
280.992903,-1628.453072,-148.041188,-79520.712692
280.996081,-2516.700203,-2220.617826,-78294.959896
280.999260,296.082377,-7254.018232,-78294.959896
281.002439,-2368.659014,3256.906145,-77528.864398
281.005618,-444.123565,7846.182985,-77682.083497
281.008797,592.164754,5625.565159,-78907.836294
281.011975,-1036.288319,5477.523971,-79827.150892
281.015154,592.164754,4441.235652,-79061.055394
281.018333,-296.082377,296.082377,-79214.274493
281.021512,-444.123565,3108.864956,-79061.055394
281.024691,-1776.494261,3701.029710,-79827.150892
281.027869,1628.453072,740.205942,-79214.274493
281.031048,-1480.411884,-10066.800811,-78754.617194
281.034227,-296.082377,-15544.324782,-79061.055394
281.037406,296.082377,-13027.624579,-78601.398095
281.040585,296.082377,-11695.253884,-79673.931792
281.043763,-592.164754,-3849.070898,-79214.274493
281.046942,-1332.370696,1184.329507,-77375.645298
281.050121,444.123565,-3108.864956,-80440.027290
281.053300,-1332.370696,-16136.489536,-82431.875585
281.056479,1184.329507,-6513.812290,-78448.178995
281.059657,740.205942,-7254.018232,-75690.235202
281.062836,1924.535449,-15544.324782,-77682.083497
281.066015,1184.329507,-9030.512492,-79061.055394
281.069194,-1924.535449,-3701.029710,-78754.617194
281.072373,-296.082377,-7402.059420,-80286.808190
281.075578,740.205942,-4737.318029,-79367.493593
281.078784,-1184.329507,-3108.864956,-78448.178995
281.081990,296.082377,1628.453072,-79061.055394
281.085196,-1184.329507,9030.512492,-79827.150892
281.088402,-444.123565,12139.377449,-80133.589091
281.091608,148.041188,5773.606348,-77528.864398
281.094813,-1184.329507,1332.370696,-79673.931792
281.098019,-2072.576638,1036.288319,-79214.274493
281.101225,2072.576638,1036.288319,-79061.055394
281.104431,2368.659014,-1036.288319,-78448.178995
281.107637,-1776.494261,2812.782580,-79520.712692
281.110843,-1924.535449,13471.748144,-78448.178995
281.114048,-740.205942,9326.594869,-78754.617194
281.117254,444.123565,6069.688724,-79367.493593
281.120460,888.247130,5625.565159,-79061.055394
281.123666,-444.123565,2664.741391,-78907.836294
281.126872,-2072.576638,4441.235652,-79980.369991
281.130078,2516.700203,-1924.535449,-79214.274493
281.133284,1036.288319,-12287.418637,-77375.645298
281.136489,-2516.700203,-15544.324782,-79214.274493
281.139695,888.247130,-10362.883188,-80133.589091
281.142901,-592.164754,-7254.018232,-79214.274493
281.146107,888.247130,0.000000,-78294.959896
281.149313,296.082377,1480.411884,-79214.274493
281.152519,-2812.782580,-8882.471304,-80746.465489
281.155724,-296.082377,-4145.153275,-79061.055394
281.158930,-1184.329507,-4885.359217,-79214.274493
281.162136,-888.247130,-12435.459826,-78141.740796
281.165342,0.000000,-11103.089130,-78294.959896
281.168548,1924.535449,-5477.523971,-79061.055394
281.171754,148.041188,-7550.100608,-80133.589091
281.174959,-740.205942,-3552.988522,-79214.274493
281.178143,1184.329507,-8438.347739,-78907.836294
281.181326,-1924.535449,2960.823768,-77375.645298
281.184510,-1184.329507,8290.306550,-78907.836294
281.187693,0.000000,12879.583391,-78448.178995
281.190877,-296.082377,10658.965565,-77375.645298
281.194060,0.000000,2368.659014,-79061.055394
281.197243,1184.329507,-3849.070898,-79673.931792
281.200427,-740.205942,-3849.070898,-80593.246390
281.203610,-444.123565,2072.576638,-77375.645298
281.206794,-148.041188,8586.388927,-76149.892501
281.209977,592.164754,5181.441594,-79673.931792
281.213161,-3108.864956,5921.647536,-79673.931792
281.216344,888.247130,7550.100608,-80593.246390
281.219527,1036.288319,1776.494261,-79520.712692
281.222711,-888.247130,2072.576638,-77835.302597
281.225894,-148.041188,3108.864956,-79214.274493
281.229078,1480.411884,-148.041188,-78907.836294
281.232261,-1184.329507,-10807.006753,-78907.836294
281.235445,-148.041188,-15544.324782,-79367.493593
281.238628,0.000000,-14063.912898,-79061.055394
281.241811,-148.041188,-8438.347739,-80440.027290
281.244995,1184.329507,-2812.782580,-77988.521696
281.248178,-1332.370696,3701.029710,-77528.864398
281.251362,-1036.288319,296.082377,-80593.246390
281.254545,888.247130,-5773.606348,-79520.712692
281.257729,-296.082377,-4737.318029,-79673.931792
281.260912,-740.205942,-7994.224174,-77528.864398
281.264095,-592.164754,-11103.089130,-77375.645298
281.267279,1480.411884,-5921.647536,-78448.178995
281.270462,444.123565,-4441.235652,-79520.712692
281.273646,-592.164754,-7254.018232,-79367.493593
281.276829,296.082377,-8290.306550,-78601.398095
281.280040,-148.041188,-1776.494261,-78294.959896
281.283251,-444.123565,4885.359217,-79673.931792
281.286461,888.247130,12139.377449,-79520.712692
281.289672,-1776.494261,9178.553681,-78907.836294
281.292883,-296.082377,4441.235652,-77988.521696
281.296094,-740.205942,-4145.153275,-80133.589091
281.299304,-1628.453072,-4441.235652,-80286.808190
281.302515,592.164754,-10510.924376,-78294.959896
281.305726,-296.082377,-3701.029710,-80286.808190
281.308936,-2072.576638,8734.430116,-79980.369991
281.312147,1628.453072,10362.883188,-79520.712692
281.315358,1924.535449,4293.194464,-82738.313784
281.318569,-148.041188,3997.112087,-79367.493593
281.321779,-592.164754,296.082377,-75843.454302
281.324990,-1332.370696,1036.288319,-78601.398095
281.328201,-148.041188,2368.659014,-79520.712692
281.331412,-1184.329507,-9030.512492,-78754.617194
281.334622,-148.041188,-13767.830521,-78754.617194
281.337833,-1480.411884,-10510.924376,-79520.712692
281.341044,-1480.411884,-12435.459826,-81512.560987
281.344254,2368.659014,-3552.988522,-77988.521696
281.347465,-2072.576638,-1480.411884,-77069.207099
281.350676,-888.247130,-8142.265362,-79520.712692
281.353887,148.041188,-5625.565159,-79214.274493
281.357097,-740.205942,-6809.894666,-79673.931792
281.360308,-1184.329507,-11991.336260,-79673.931792
281.363519,-592.164754,-13767.830521,-78448.178995
281.366730,148.041188,-9474.636058,-79827.150892
281.369940,888.247130,-7402.059420,-79061.055394
281.373151,-888.247130,-5329.482782,-78907.836294
281.376362,-1036.288319,-7846.182985,-78907.836294
281.379572,-444.123565,2960.823768,-78294.959896
281.382806,-296.082377,10807.006753,-80133.589091
281.386039,888.247130,12139.377449,-79520.712692
281.389272,-296.082377,9474.636058,-77069.207099
281.392506,-1036.288319,3997.112087,-78448.178995
281.395739,-444.123565,-3108.864956,-78601.398095
281.398973,-3552.988522,-3849.070898,-81512.560987
281.402206,-1776.494261,-1628.453072,-77835.302597
281.405439,-1332.370696,6957.935855,-76303.111601
281.408673,-296.082377,5625.565159,-79673.931792
281.411906,1036.288319,7105.977043,-79367.493593
281.415139,-1036.288319,7550.100608,-80440.027290
281.418373,0.000000,2664.741391,-79980.369991
281.421606,148.041188,3552.988522,-78141.740796
281.424839,296.082377,5921.647536,-78448.178995
281.428073,1776.494261,148.041188,-79827.150892
281.431306,-1184.329507,-11251.130318,-78141.740796
281.434539,-2220.617826,-16580.613101,-77835.302597
281.437773,740.205942,-11843.295072,-79827.150892
281.441006,-148.041188,-9474.636058,-80133.589091
281.444239,740.205942,-740.205942,-78754.617194
281.447473,-888.247130,1480.411884,-77528.864398
281.450706,-1036.288319,-8438.347739,-79367.493593
281.453939,-148.041188,-13619.789333,-80133.589091
281.457173,-3256.906145,-6661.853478,-78601.398095
281.460406,1776.494261,-13619.789333,-79061.055394
281.463639,2664.741391,-12583.501014,-79367.493593
281.466873,-2368.659014,-7550.100608,-79980.369991
281.470106,888.247130,-6513.812290,-78754.617194
281.473339,-592.164754,-4885.359217,-78448.178995
281.476573,1332.370696,-6365.771101,-77835.302597
281.479806,1480.411884,3108.864956,-77988.521696
281.483039,-1480.411884,11695.253884,-79827.150892
281.486291,1480.411884,12287.418637,-79673.931792
281.489543,592.164754,8586.388927,-77988.521696
281.492795,-2072.576638,-1628.453072,-79061.055394
281.496047,296.082377,-4441.235652,-78141.740796
281.499299,-1036.288319,-4589.276840,-81206.122788
281.502551,-148.041188,-296.082377,-81512.560987
281.505803,0.000000,2664.741391,-80593.246390
281.509055,-1628.453072,6809.894666,-81359.341888
281.512307,-592.164754,10214.842000,-78601.398095
281.515558,592.164754,6217.729913,-78294.959896
281.518810,-296.082377,2664.741391,-76915.987999
281.522062,-592.164754,3108.864956,-77375.645298
281.525314,-296.082377,3552.988522,-80746.465489
281.528566,148.041188,-10510.924376,-79673.931792
281.531818,592.164754,-12731.542202,-78907.836294
281.535070,148.041188,-11399.171507,-78754.617194
281.538322,444.123565,-15544.324782,-79673.931792
281.541574,1332.370696,-1924.535449,-78754.617194
281.544826,740.205942,6069.688724,-76609.549800
281.548078,-444.123565,-1776.494261,-78907.836294
281.551329,444.123565,-12435.459826,-78601.398095
281.554581,592.164754,-6217.729913,-78907.836294
281.557833,-444.123565,-4737.318029,-77988.521696
281.561085,-592.164754,-14211.954086,-76762.768900
281.564337,296.082377,-9622.677246,-80593.246390
281.567589,296.082377,-2664.741391,-79980.369991
281.570841,-1480.411884,-4441.235652,-78448.178995
281.574093,148.041188,-9474.636058,-79061.055394
281.577345,-888.247130,6069.688724,-77835.302597
281.580597,-1036.288319,8734.430116,-78601.398095
281.583848,-592.164754,12287.418637,-80286.808190
281.587100,-1332.370696,11399.171507,-78294.959896
281.590367,148.041188,1628.453072,-79827.150892
281.593634,-1184.329507,-1776.494261,-79827.150892
281.596901,-2812.782580,2368.659014,-79367.493593
281.600168,1332.370696,6661.853478,-76149.892501
281.603435,1924.535449,7254.018232,-76609.549800
281.606702,592.164754,5181.441594,-78907.836294
281.609969,-296.082377,16580.613101,-77682.083497
281.613236,592.164754,12139.377449,-77375.645298
281.616503,-740.205942,1480.411884,-78448.178995
281.619770,0.000000,444.123565,-78907.836294
281.623037,444.123565,5329.482782,-79214.274493
281.626304,-740.205942,-8734.430116,-78754.617194
281.629571,-1184.329507,-17468.860231,-79520.712692
281.632838,-1332.370696,-13323.706956,-79214.274493
281.636105,-148.041188,-15396.283594,-79214.274493
281.639372,888.247130,-6217.729913,-79367.493593
281.642639,-740.205942,592.164754,-78448.178995
281.645905,-1184.329507,-7402.059420,-79061.055394
281.649172,740.205942,-4589.276840,-80286.808190
281.652439,-592.164754,-6661.853478,-79980.369991
281.655706,-444.123565,-10955.047942,-78601.398095
281.658973,296.082377,-11103.089130,-79214.274493
281.662240,-1480.411884,-11843.295072,-79061.055394
281.665507,888.247130,-6365.771101,-79367.493593
281.695007,-148.041188,-2072.576638,-81512.560987
281.698287,1184.329507,-2072.576638,-79827.150892
281.701566,-1184.329507,2664.741391,-79367.493593
281.704845,-1628.453072,8142.265362,-77835.302597
281.708124,444.123565,9474.636058,-78294.959896
281.711404,-296.082377,10214.842000,-79520.712692
281.714683,-1776.494261,4589.276840,-78754.617194
281.717962,0.000000,-592.164754,-78294.959896
281.721242,-148.041188,3404.947333,-80593.246390
281.724521,-148.041188,-11399.171507,-79673.931792
281.727800,-444.123565,-15396.283594,-78141.740796
281.731079,-1036.288319,-11991.336260,-78448.178995
281.734359,1628.453072,-13767.830521,-79980.369991
281.737638,-296.082377,-2516.700203,-79214.274493
281.740917,-1036.288319,1924.535449,-77528.864398
281.744196,0.000000,-1332.370696,-77375.645298
281.747476,-296.082377,-5181.441594,-78907.836294
281.750755,592.164754,-2072.576638,-76609.549800
281.754034,-2664.741391,-12435.459826,-78141.740796
281.757313,-888.247130,-14211.954086,-79061.055394
281.760593,0.000000,-8142.265362,-80286.808190
281.763872,-444.123565,-6217.729913,-79673.931792
281.767151,1332.370696,-5033.400406,-78754.617194
281.770430,-1184.329507,-6957.935855,-78601.398095
281.773675,0.000000,5181.441594,-77835.302597
281.776920,-148.041188,10955.047942,-78907.836294
281.780164,0.000000,11547.212695,-80133.589091
281.783409,-888.247130,11547.212695,-76915.987999
281.786653,-444.123565,-888.247130,-79367.493593
281.789898,740.205942,-1036.288319,-79827.150892
281.793142,1480.411884,-2368.659014,-78907.836294
281.796387,-1924.535449,1332.370696,-79673.931792
281.799632,-592.164754,8438.347739,-77069.207099
281.802876,1776.494261,10807.006753,-77528.864398
281.806121,-2664.741391,12287.418637,-78907.836294
281.809365,592.164754,7402.059420,-79520.712692
281.812610,-888.247130,3108.864956,-78448.178995
281.815854,-1036.288319,4441.235652,-79214.274493
281.819099,444.123565,-2516.700203,-79520.712692
281.822344,-592.164754,-12287.418637,-77682.083497
281.825588,-1036.288319,-17764.942608,-78448.178995
281.828833,-444.123565,-11991.336260,-79061.055394
281.832077,2072.576638,-8438.347739,-79061.055394
281.835322,1036.288319,-1924.535449,-79673.931792
281.838566,-3404.947333,1628.453072,-78448.178995
281.841811,-1184.329507,-2072.576638,-79520.712692
281.845056,592.164754,-5625.565159,-79827.150892
281.848300,0.000000,-10066.800811,-78907.836294
281.851545,-740.205942,-16432.571912,-78448.178995
281.854789,-2220.617826,-10214.842000,-77682.083497
281.858034,888.247130,-4885.359217,-77528.864398
281.861278,0.000000,-5477.523971,-80133.589091
281.864523,-148.041188,-8438.347739,-81052.903688
281.867768,-888.247130,592.164754,-77835.302597
281.871012,-1184.329507,6957.935855,-78601.398095
281.874257,444.123565,12583.501014,-79061.055394
281.877473,592.164754,10658.965565,-77835.302597
281.880689,-2368.659014,2368.659014,-79214.274493
281.883906,-1332.370696,2072.576638,-78907.836294
281.887122,-888.247130,1776.494261,-79061.055394
281.890338,1480.411884,9030.512492,-75843.454302
281.893554,-1776.494261,4589.276840,-76762.768900
281.896771,-148.041188,3701.029710,-79061.055394
281.899987,-148.041188,12879.583391,-78448.178995
281.903203,-444.123565,12879.583391,-77835.302597
281.906419,-1480.411884,4885.359217,-78754.617194
281.909636,-148.041188,1480.411884,-79061.055394
281.912852,1332.370696,444.123565,-79673.931792
281.916068,-1332.370696,-12139.377449,-79061.055394
281.919284,-888.247130,-17468.860231,-78601.398095
281.922501,-592.164754,-13767.830521,-79367.493593
281.925717,740.205942,-11547.212695,-79520.712692
281.928933,740.205942,-2960.823768,-79367.493593
281.932149,-2812.782580,3404.947333,-79061.055394
281.935366,-148.041188,-6661.853478,-78754.617194
281.938582,148.041188,-7402.059420,-79980.369991
281.941798,-1036.288319,-5773.606348,-78601.398095
281.945014,-296.082377,-11991.336260,-76456.330700
281.948231,-1480.411884,-13619.789333,-79367.493593
281.951447,0.000000,-7105.977043,-79673.931792
281.954663,1776.494261,-5329.482782,-79673.931792
281.957879,-1332.370696,-9030.512492,-80593.246390
281.961096,0.000000,592.164754,-77988.521696
281.964312,-296.082377,5773.606348,-79980.369991
281.967528,-296.082377,14952.160028,-79214.274493
281.970744,296.082377,11399.171507,-78294.959896
281.973961,-1036.288319,5033.400406,-78601.398095
281.977177,-3701.029710,-4145.153275,-78754.617194
281.980413,1036.288319,-4737.318029,-79520.712692
281.983649,0.000000,-2072.576638,-80899.684589
281.986885,-888.247130,5033.400406,-78448.178995
281.990122,-444.123565,9770.718434,-76762.768900
281.993358,-1776.494261,7550.100608,-79673.931792
281.996594,1628.453072,6513.812290,-80133.589091
281.999830,-888.247130,7698.141797,-79214.274493
282.003067,-444.123565,444.123565,-78754.617194
282.006303,740.205942,1924.535449,-78754.617194
282.009539,-740.205942,-10214.842000,-78601.398095
282.012775,-740.205942,-15840.407159,-78448.178995
282.016011,148.041188,-14952.160028,-78907.836294
282.019248,-148.041188,-9918.759623,-79827.150892
282.022484,296.082377,-3552.988522,-78448.178995
282.025720,-888.247130,3404.947333,-78907.836294
282.028956,-1628.453072,-6069.688724,-80593.246390
282.032193,-740.205942,-11103.089130,-79214.274493
282.035429,0.000000,-7105.977043,-77375.645298
282.038665,-740.205942,-12731.542202,-78754.617194
282.041901,-1332.370696,-14952.160028,-79520.712692
282.045137,-296.082377,-7254.018232,-78754.617194
282.048374,888.247130,-6513.812290,-79061.055394
282.051610,444.123565,-7550.100608,-79520.712692
282.054846,-1332.370696,1628.453072,-78601.398095
282.058082,0.000000,8586.388927,-79061.055394
282.061319,-592.164754,14063.912898,-79673.931792
282.064555,-2812.782580,10658.965565,-78294.959896
282.067791,-1184.329507,3997.112087,-78294.959896
282.071027,-2072.576638,-4589.276840,-79673.931792
282.074263,1924.535449,-5477.523971,-80286.808190
282.077500,1332.370696,-6069.688724,-80133.589091
282.080736,-2960.823768,-888.247130,-79673.931792
282.083946,-296.082377,8882.471304,-79061.055394
282.087156,1184.329507,9178.553681,-79214.274493
282.090366,-148.041188,6809.894666,-81052.903688
282.093575,-592.164754,6365.771101,-78448.178995
282.096785,-740.205942,2960.823768,-78294.959896
282.099995,1036.288319,296.082377,-78601.398095
282.103205,740.205942,-13027.624579,-78448.178995
282.106415,-740.205942,-18357.107362,-78907.836294
282.109625,0.000000,-12139.377449,-78907.836294
282.112835,-888.247130,-10066.800811,-79827.150892
282.116045,-296.082377,-444.123565,-79367.493593
282.119255,-444.123565,444.123565,-79061.055394
282.122465,-592.164754,-8438.347739,-81359.341888
282.125674,-888.247130,-6513.812290,-79673.931792
282.128884,-740.205942,-10362.883188,-78601.398095
282.132094,-888.247130,-18357.107362,-78448.178995
282.135304,-1184.329507,-10658.965565,-79367.493593
282.138514,444.123565,-4145.153275,-77682.083497
282.141724,1184.329507,-3404.947333,-78448.178995
282.144934,1036.288319,-7254.018232,-79520.712692
282.148144,-592.164754,3552.988522,-77682.083497
282.151354,-1036.288319,10066.800811,-78754.617194
282.154563,592.164754,12879.583391,-78601.398095
282.157773,444.123565,12435.459826,-77682.083497
282.160983,-3997.112087,3108.864956,-79061.055394
282.164193,1184.329507,-4589.276840,-79673.931792
282.167403,-2664.741391,-9326.594869,-81972.218286
282.170613,-148.041188,-4885.359217,-78907.836294
282.173823,-740.205942,5625.565159,-77835.302597
282.177033,-592.164754,11843.295072,-79827.150892
282.180243,740.205942,7994.224174,-78601.398095
282.183453,-888.247130,6217.729913,-79367.493593
282.186684,-1924.535449,2664.741391,-78754.617194
282.189915,-1480.411884,1924.535449,-78601.398095
282.193146,148.041188,-10066.800811,-79827.150892
282.196377,1184.329507,-13767.830521,-78294.959896
282.199608,-1184.329507,-18505.148550,-78601.398095
282.202839,-1036.288319,-12287.418637,-79980.369991
282.206070,-148.041188,-3552.988522,-79367.493593
282.209301,296.082377,2220.617826,-78907.836294
282.212532,-1332.370696,-2812.782580,-79673.931792
282.215764,-1184.329507,-3701.029710,-79367.493593
282.218995,1628.453072,-5773.606348,-79061.055394
282.222226,-888.247130,-11843.295072,-78448.178995
282.225457,-1924.535449,-12287.418637,-78754.617194
282.228688,-148.041188,-9474.636058,-78294.959896
282.231919,-444.123565,-8290.306550,-79980.369991
282.235150,-1480.411884,-8734.430116,-79520.712692
282.238381,0.000000,1036.288319,-78907.836294
282.241612,-740.205942,8142.265362,-78448.178995
282.244844,-1332.370696,15988.448347,-79367.493593
282.248075,1036.288319,11103.089130,-78141.740796
282.251306,0.000000,2812.782580,-78294.959896
282.254537,296.082377,-592.164754,-78907.836294
282.257768,1036.288319,-1924.535449,-79827.150892
282.260999,1184.329507,-2072.576638,-78448.178995
282.264230,-1776.494261,5329.482782,-77988.521696
282.267461,-2220.617826,10510.924376,-79061.055394
282.270692,-888.247130,11399.171507,-77682.083497
282.273923,740.205942,7698.141797,-79520.712692
282.277155,148.041188,5033.400406,-78448.178995
282.280386,-2664.741391,2812.782580,-77835.302597
282.283617,0.000000,-592.164754,-80593.246390
282.286848,444.123565,-14063.912898,-78754.617194
282.290054,-1480.411884,-22058.137072,-79214.274493
282.293260,148.041188,-11843.295072,-79214.274493
282.296467,-148.041188,-7846.182985,-79673.931792
282.299673,296.082377,444.123565,-79061.055394
282.302879,-1332.370696,444.123565,-77375.645298
282.306085,-592.164754,-1184.329507,-78294.959896
282.309292,740.205942,-8882.471304,-78601.398095
282.312498,-888.247130,-13915.871710,-79214.274493
282.315704,-1776.494261,-13471.748144,-78601.398095
282.318911,296.082377,-10362.883188,-77682.083497
282.322117,-1036.288319,-7402.059420,-79673.931792
282.325323,1184.329507,-4145.153275,-79980.369991
282.328529,296.082377,-3849.070898,-78907.836294
282.331736,-1776.494261,6217.729913,-79980.369991
282.334942,-592.164754,14508.036463,-79061.055394
282.338148,888.247130,10510.924376,-79214.274493
282.341354,1480.411884,6069.688724,-77069.207099
282.344561,-1036.288319,-2220.617826,-77375.645298
282.347767,-592.164754,-7846.182985,-80440.027290
282.350973,444.123565,-3256.906145,-80286.808190
282.354180,-148.041188,4293.194464,-78448.178995
282.357386,-148.041188,7994.224174,-78448.178995
282.360592,-888.247130,12287.418637,-78907.836294
282.363798,1776.494261,7105.977043,-80133.589091
282.367005,-148.041188,5773.606348,-79214.274493
282.370211,-2664.741391,2960.823768,-78601.398095
282.373417,1036.288319,-1628.453072,-78754.617194
282.376623,1628.453072,-15396.283594,-78601.398095
282.379830,-2072.576638,-19393.395680,-79061.055394
282.383036,0.000000,-12139.377449,-78294.959896
282.386242,-444.123565,-8142.265362,-79673.931792
282.389449,1480.411884,148.041188,-78601.398095
282.392677,-1184.329507,3701.029710,-77835.302597
282.395906,1036.288319,-1036.288319,-79980.369991
282.399135,2220.617826,-4293.194464,-77682.083497
282.402364,-148.041188,-10658.965565,-78448.178995
282.405593,-3256.906145,-12879.583391,-77835.302597
282.408822,0.000000,-10658.965565,-78294.959896
282.412051,0.000000,-7698.141797,-79980.369991
282.415280,592.164754,-5625.565159,-79214.274493
282.418509,296.082377,-3997.112087,-78907.836294
282.421737,-2072.576638,8438.347739,-79520.712692
282.424966,-888.247130,14804.118840,-79367.493593
282.428195,148.041188,11103.089130,-78601.398095
282.431424,-444.123565,8142.265362,-77835.302597
282.434653,-2516.700203,-1332.370696,-78601.398095
282.437882,296.082377,-5181.441594,-79673.931792
282.441111,740.205942,4441.235652,-80286.808190
282.444340,-296.082377,888.247130,-77069.207099
282.447569,-2220.617826,4737.318029,-78448.178995
282.450798,296.082377,14656.077652,-80593.246390
282.454026,-1036.288319,9918.759623,-77375.645298
282.457255,-148.041188,3404.947333,-79367.493593
282.460484,-1480.411884,3552.988522,-80286.808190
282.463713,0.000000,-2072.576638,-77682.083497
282.466942,1480.411884,-15988.448347,-77528.864398
282.470171,-1924.535449,-21021.848753,-79214.274493
282.473400,-1924.535449,-12879.583391,-79673.931792
282.476629,888.247130,-6365.771101,-78907.836294
282.479858,1628.453072,-444.123565,-79061.055394
282.483086,-1924.535449,2812.782580,-77988.521696
282.486315,-444.123565,-8882.471304,-78907.836294
282.489544,-1036.288319,-18357.107362,-82125.437386
282.492773,888.247130,-11103.089130,-80286.808190
282.496021,-592.164754,-9918.759623,-77528.864398
282.499268,-592.164754,-9770.718434,-78601.398095
282.502516,1480.411884,-3552.988522,-79980.369991
282.505763,-148.041188,-5033.400406,-78601.398095
282.509011,-740.205942,2812.782580,-77069.207099
282.512258,-1184.329507,10807.006753,-79827.150892
282.515506,0.000000,15100.201217,-79520.712692
282.518753,-1924.535449,8734.430116,-77069.207099
282.522001,148.041188,-296.082377,-78601.398095
282.525248,-3108.864956,-3404.947333,-79827.150892
282.528496,-888.247130,-1924.535449,-80286.808190
282.531743,2664.741391,-4885.359217,-79673.931792
282.534991,-1480.411884,296.082377,-79367.493593
282.538238,-1924.535449,12139.377449,-81512.560987
282.541486,-148.041188,11991.336260,-78141.740796
282.544733,592.164754,5625.565159,-79061.055394
282.547981,-740.205942,5329.482782,-79520.712692
282.551228,0.000000,2812.782580,-78448.178995
282.554476,-444.123565,-12731.542202,-78907.836294
282.557723,1036.288319,-16876.695478,-78601.398095
282.560971,-148.041188,-16580.613101,-77222.426198
282.564218,-888.247130,-11251.130318,-79367.493593
282.567466,1184.329507,740.205942,-77835.302597
282.570713,444.123565,2516.700203,-77528.864398
282.600077,-1184.329507,6069.688724,-79061.055394
282.603340,-1480.411884,14508.036463,-79367.493593
282.606603,444.123565,10214.842000,-79673.931792
282.609865,0.000000,6957.935855,-77835.302597
282.613128,-1332.370696,-3256.906145,-78448.178995
282.616391,-296.082377,-6217.729913,-79827.150892
282.619653,592.164754,-4145.153275,-81052.903688
282.622916,-1480.411884,3701.029710,-79061.055394
282.626179,-2960.823768,9918.759623,-76762.768900
282.629441,740.205942,10066.800811,-79214.274493
282.632704,888.247130,10658.965565,-79061.055394
282.635967,1184.329507,4441.235652,-78448.178995
282.639229,-2072.576638,3997.112087,-77528.864398
282.642492,-1776.494261,-5329.482782,-80440.027290
282.645755,1776.494261,-15988.448347,-78754.617194
282.649017,-592.164754,-21465.972318,-77528.864398
282.652280,-2072.576638,-14508.036463,-79673.931792
282.655543,0.000000,-3997.112087,-79520.712692
282.658805,148.041188,-3701.029710,-78448.178995
282.662068,148.041188,-740.205942,-78448.178995
282.665331,-1480.411884,-6957.935855,-79214.274493
282.668593,0.000000,-6069.688724,-79061.055394
282.671856,-296.082377,-14359.995275,-77222.426198
282.675119,-1332.370696,-15840.407159,-79214.274493
282.678392,-888.247130,-6217.729913,-78601.398095
282.681667,2072.576638,-3108.864956,-78448.178995
282.684942,2220.617826,-7402.059420,-79061.055394
282.688217,-740.205942,4293.194464,-78141.740796
282.691492,-444.123565,9918.759623,-79520.712692
282.694767,592.164754,12139.377449,-79673.931792
282.698042,-1332.370696,9178.553681,-78448.178995
282.701317,148.041188,-296.082377,-78754.617194
282.704592,-2072.576638,-4737.318029,-77835.302597
282.707867,592.164754,-1480.411884,-79214.274493
282.711142,-1332.370696,4145.153275,-77682.083497
282.714416,148.041188,5329.482782,-77528.864398
282.717691,888.247130,13619.789333,-79980.369991
282.720966,-592.164754,12583.501014,-78907.836294
282.724241,-888.247130,3701.029710,-78601.398095
282.727516,-1332.370696,4293.194464,-78754.617194
282.730791,-1184.329507,-444.123565,-78601.398095
282.734066,740.205942,-17764.942608,-78294.959896
282.737341,-444.123565,-21762.054695,-79520.712692
282.740616,-1924.535449,-12583.501014,-79061.055394
282.743891,-444.123565,-10510.924376,-79673.931792
282.747166,740.205942,1924.535449,-79367.493593
282.750440,0.000000,5773.606348,-76762.768900
282.753715,-2072.576638,-6069.688724,-77835.302597
282.756990,0.000000,-7846.182985,-79520.712692
282.760265,1332.370696,-10066.800811,-78448.178995
282.763540,-1036.288319,-14656.077652,-78448.178995
282.766815,-1036.288319,-11695.253884,-79214.274493
282.770090,592.164754,-3701.029710,-79673.931792
282.773365,296.082377,-6809.894666,-77682.083497
282.776640,148.041188,3108.864956,-77835.302597
282.779915,-592.164754,10955.047942,-80440.027290
282.783157,740.205942,14211.954086,-79367.493593
282.786400,1036.288319,9326.594869,-77375.645298
282.789642,-444.123565,3701.029710,-77988.521696
282.792885,-740.205942,-1480.411884,-77835.302597
282.796128,-296.082377,-1628.453072,-80133.589091
282.799370,740.205942,-2516.700203,-79520.712692
282.802613,-1480.411884,9770.718434,-77528.864398
282.805855,-2664.741391,15988.448347,-78754.617194
282.809098,296.082377,8882.471304,-78294.959896
282.812340,444.123565,4589.276840,-80746.465489
282.815583,-1036.288319,5477.523971,-79061.055394
282.818826,-740.205942,-3701.029710,-79061.055394
282.822068,296.082377,-16580.613101,-79061.055394
282.825311,-888.247130,-20577.725188,-78907.836294
282.828553,-1480.411884,-12731.542202,-78448.178995
282.831796,0.000000,-10214.842000,-79980.369991
282.835039,-444.123565,3256.906145,-79673.931792
282.838281,-592.164754,6069.688724,-78907.836294
282.841524,-3404.947333,-12287.418637,-79214.274493
282.844766,0.000000,-18505.148550,-82125.437386
282.848009,740.205942,-10510.924376,-79061.055394
282.851252,-1924.535449,-11843.295072,-74770.920605
282.854494,-296.082377,-10807.006753,-79367.493593
282.857737,1184.329507,-1480.411884,-80133.589091
282.860979,444.123565,-4293.194464,-78754.617194
282.864222,-1036.288319,6661.853478,-77988.521696
282.867465,-1036.288319,12731.542202,-79520.712692
282.870707,592.164754,14952.160028,-78907.836294
282.873950,592.164754,11103.089130,-77835.302597
282.877192,740.205942,-1036.288319,-79061.055394
282.880435,-2960.823768,-296.082377,-78907.836294
282.883677,740.205942,-3849.070898,-80286.808190
282.886935,148.041188,0.000000,-79367.493593
282.890192,-2368.659014,7698.141797,-78448.178995
282.893450,-444.123565,12583.501014,-79673.931792
282.896707,-296.082377,13471.748144,-78141.740796
282.899965,740.205942,7846.182985,-78601.398095
282.903222,-444.123565,2664.741391,-78141.740796
282.906479,-888.247130,-9030.512492,-79061.055394
282.909737,1332.370696,-17468.860231,-78601.398095
282.912994,-1036.288319,-22354.219448,-79367.493593
282.916252,-1628.453072,-14063.912898,-80593.246390
282.919509,1184.329507,-444.123565,-79214.274493
282.922767,148.041188,-444.123565,-78907.836294
282.926024,444.123565,-1480.411884,-77682.083497
282.929281,-1776.494261,-7254.018232,-80593.246390
282.932539,740.205942,-10066.800811,-79061.055394
282.935796,148.041188,-12879.583391,-78907.836294
282.939054,148.041188,-16876.695478,-78448.178995
282.942311,-592.164754,-9622.677246,-78601.398095
282.945569,-296.082377,-5033.400406,-80286.808190
282.948826,2072.576638,-6217.729913,-77988.521696
282.952083,-148.041188,7698.141797,-79214.274493
282.955341,-2812.782580,15692.365970,-80593.246390
282.958598,1480.411884,11399.171507,-78907.836294
282.961856,1036.288319,5773.606348,-79214.274493
282.965113,-6365.771101,-2664.741391,-79061.055394
282.968371,-2368.659014,-444.123565,-78294.959896
282.971628,2516.700203,-3256.906145,-78601.398095
282.974885,-2368.659014,740.205942,-80593.246390
282.978143,-1924.535449,12139.377449,-78601.398095
282.981400,0.000000,12139.377449,-78601.398095
282.984658,592.164754,8438.347739,-79520.712692
282.987915,296.082377,5329.482782,-78907.836294
282.991185,-1776.494261,3552.988522,-77682.083497
282.994455,-1924.535449,-15544.324782,-79367.493593
282.997725,1184.329507,-17468.860231,-78601.398095
283.000995,148.041188,-16580.613101,-77375.645298
283.004265,-1776.494261,-12139.377449,-79673.931792
283.007535,1332.370696,3108.864956,-78448.178995
283.010804,148.041188,2664.741391,-78754.617194
283.014074,-888.247130,1480.411884,-78294.959896
283.017344,-296.082377,-5181.441594,-79673.931792
283.020614,-1776.494261,-14359.995275,-80746.465489
283.023884,148.041188,-13175.665768,-76609.549800
283.027154,-1628.453072,-11547.212695,-77528.864398
283.030424,0.000000,-5625.565159,-78601.398095
283.033694,1480.411884,-6513.812290,-79367.493593
283.036964,-148.041188,5773.606348,-77682.083497
283.040234,-2516.700203,11547.212695,-78294.959896
283.043504,740.205942,13915.871710,-80133.589091
283.046774,592.164754,11399.171507,-78448.178995
283.050044,-148.041188,-888.247130,-79061.055394
283.053313,-2516.700203,-4145.153275,-79367.493593
283.056583,-296.082377,-888.247130,-79520.712692
283.059853,444.123565,4293.194464,-79061.055394
283.063123,-3552.988522,5773.606348,-78601.398095
283.066393,-1184.329507,10214.842000,-78601.398095
283.069663,0.000000,13915.871710,-78907.836294
283.072933,-1036.288319,4145.153275,-77988.521696
283.076203,-1184.329507,444.123565,-77375.645298
283.079473,-2368.659014,-6661.853478,-79673.931792
283.082743,148.041188,-17912.983796,-78448.178995
283.086013,-1776.494261,-23390.507767,-80133.589091
283.089283,-1924.535449,-14063.912898,-80133.589091
283.092552,740.205942,-296.082377,-77988.521696
283.095791,296.082377,592.164754,-79520.712692
283.099029,-1036.288319,-3552.988522,-79673.931792
283.102267,-1184.329507,-8290.306550,-80133.589091
283.105505,888.247130,-12435.459826,-80746.465489
283.108744,592.164754,-17616.901420,-78601.398095
283.111982,-740.205942,-13767.830521,-78907.836294
283.115220,0.000000,-5773.606348,-79367.493593
283.118458,0.000000,-5033.400406,-79520.712692
283.121697,740.205942,-1776.494261,-80133.589091
283.124935,-592.164754,10658.965565,-79061.055394
283.128173,-1628.453072,18505.148550,-79367.493593
283.131411,-592.164754,11103.089130,-78907.836294
283.134650,296.082377,5181.441594,-78141.740796
283.137888,-3108.864956,-296.082377,-79214.274493
283.141126,-1924.535449,-6069.688724,-79061.055394
283.144364,1184.329507,-1776.494261,-80440.027290
283.147602,-740.205942,7846.182985,-78294.959896
283.150841,-2072.576638,12879.583391,-77375.645298
283.154079,740.205942,11251.130318,-80440.027290
283.157317,1036.288319,4293.194464,-79520.712692
283.160555,-1184.329507,4737.318029,-78448.178995
283.163794,-1628.453072,-3108.864956,-79061.055394
283.167032,444.123565,-18949.272115,-78448.178995
283.170270,-1480.411884,-22354.219448,-79061.055394
283.173508,-1036.288319,-11695.253884,-78754.617194
283.176747,-740.205942,-4293.194464,-78754.617194
283.179985,888.247130,-1036.288319,-78754.617194
283.183223,2072.576638,7402.059420,-77375.645298
283.186461,-1332.370696,2072.576638,-75843.454302
283.189699,296.082377,-13323.706956,-78294.959896
283.192938,1628.453072,-16136.489536,-78907.836294
283.196176,-888.247130,-12583.501014,-78141.740796
283.199430,148.041188,-6957.935855,-78448.178995
283.202683,444.123565,-6365.771101,-80286.808190
283.205937,-148.041188,-2516.700203,-80286.808190
283.209191,-1628.453072,7550.100608,-78907.836294
283.212444,-592.164754,16876.695478,-79367.493593
283.215698,1332.370696,11547.212695,-79673.931792
283.218952,740.205942,4145.153275,-79673.931792
283.222206,-1628.453072,-2220.617826,-77988.521696
283.225459,-2664.741391,-6513.812290,-79980.369991
283.228713,888.247130,-2812.782580,-81052.903688
283.231967,-1184.329507,4885.359217,-80133.589091
283.235220,-1036.288319,12139.377449,-79061.055394
283.238474,-296.082377,12287.418637,-78601.398095
283.241728,-296.082377,8882.471304,-78907.836294
283.244982,-296.082377,5181.441594,-77069.207099
283.248235,-2812.782580,-3701.029710,-77682.083497
283.251489,1332.370696,-18505.148550,-79214.274493
283.254743,-740.205942,-25315.043216,-81052.903688
283.257996,-592.164754,-12435.459826,-80286.808190
283.261250,-296.082377,-2664.741391,-78448.178995
283.264504,0.000000,-444.123565,-78294.959896
283.267757,2220.617826,1924.535449,-77375.645298
283.271011,-444.123565,-6513.812290,-79520.712692
283.274265,592.164754,-10214.842000,-80286.808190
283.277519,740.205942,-15100.201217,-79673.931792
283.280772,-444.123565,-17616.901420,-77835.302597
283.284026,-296.082377,-9770.718434,-80593.246390
283.287280,444.123565,-4589.276840,-81206.122788
283.290533,-2072.576638,-1332.370696,-78141.740796
283.293787,592.164754,10214.842000,-78907.836294
283.297041,-1184.329507,17764.942608,-79214.274493
283.300294,-1332.370696,12287.418637,-79214.274493
283.303561,740.205942,2812.782580,-77682.083497
283.306827,-2664.741391,-5329.482782,-78907.836294
283.310094,-1924.535449,-7254.018232,-81052.903688
283.313360,1332.370696,2812.782580,-78754.617194
283.316626,-296.082377,5329.482782,-77988.521696
283.319893,-1628.453072,10807.006753,-79367.493593
283.323159,-444.123565,14656.077652,-79520.712692
283.326426,740.205942,5921.647536,-78754.617194
283.329692,-1036.288319,1036.288319,-79061.055394
283.332958,296.082377,-7994.224174,-79214.274493
283.336225,592.164754,-17912.983796,-77069.207099
283.339491,-888.247130,-23390.507767,-78601.398095
283.342757,0.000000,-10955.047942,-80593.246390
283.346024,592.164754,-740.205942,-78601.398095
283.349290,148.041188,-1184.329507,-77835.302597
283.352557,148.041188,2664.741391,-78294.959896
283.355823,-1776.494261,-8438.347739,-78448.178995
283.359089,444.123565,-13915.871710,-79673.931792
283.362356,740.205942,-13471.748144,-77988.521696
283.365622,-1628.453072,-13027.624579,-77528.864398
283.368888,-592.164754,-8290.306550,-79827.150892
283.372155,1332.370696,-5477.523971,-79367.493593
283.375421,296.082377,6661.853478,-78907.836294
283.378688,-1036.288319,11103.089130,-78141.740796
283.381954,1036.288319,15248.242405,-79061.055394
283.385220,-740.205942,11103.089130,-79367.493593
283.388487,-296.082377,-888.247130,-78141.740796
283.391753,-2664.741391,-6069.688724,-78601.398095
283.395020,1628.453072,-6217.729913,-82431.875585
283.398286,-444.123565,-1184.329507,-78601.398095
283.401552,-1036.288319,10066.800811,-77375.645298
283.404819,-1480.411884,11843.295072,-80133.589091
283.408095,1776.494261,10955.047942,-79061.055394
283.411371,148.041188,7994.224174,-78601.398095
283.414647,-592.164754,-296.082377,-78754.617194
283.417923,-2368.659014,-16580.613101,-78294.959896
283.421199,-1332.370696,-19393.395680,-78907.836294
283.424475,148.041188,-17616.901420,-78448.178995
283.427751,-2072.576638,-7550.100608,-79061.055394
283.431027,-148.041188,3404.947333,-79214.274493
283.434304,1776.494261,-1628.453072,-78601.398095
283.437580,-740.205942,-6069.688724,-79367.493593
283.440856,1776.494261,-7994.224174,-79367.493593
283.444132,148.041188,-16432.571912,-78294.959896
283.447408,444.123565,-18505.148550,-78448.178995
283.450684,-592.164754,-11103.089130,-78907.836294
283.453960,1480.411884,-7550.100608,-80286.808190
283.457236,2220.617826,-1924.535449,-80899.684589
283.460512,296.082377,9030.512492,-77988.521696
283.463789,-1924.535449,16728.654289,-78754.617194
283.467065,1184.329507,11695.253884,-78601.398095
283.470341,-1036.288319,2072.576638,-79214.274493
283.473617,-3701.029710,-592.164754,-80593.246390
283.476893,888.247130,-6809.894666,-79061.055394
283.480169,3256.906145,-592.164754,-80286.808190
283.483445,-888.247130,10510.924376,-77682.083497
283.486730,-3404.947333,13915.871710,-75996.673402
283.490015,-888.247130,14656.077652,-79061.055394
283.493299,148.041188,7105.977043,-80286.808190
283.496584,-740.205942,1628.453072,-78754.617194
283.499869,-1036.288319,-5921.647536,-78141.740796
283.503153,-148.041188,-20281.642811,-78448.178995
283.506438,-1036.288319,-24426.796086,-80286.808190
283.509723,740.205942,-12583.501014,-79061.055394
283.513008,-592.164754,-1480.411884,-79367.493593
283.516292,-148.041188,1332.370696,-79214.274493
283.519577,0.000000,-6069.688724,-79673.931792
283.522862,592.164754,-3997.112087,-79214.274493
283.526147,-1184.329507,-12435.459826,-78294.959896
283.529431,1036.288319,-19541.436869,-78754.617194
283.532716,-2072.576638,-12287.418637,-77835.302597
283.536001,444.123565,-4145.153275,-79673.931792
283.539285,2220.617826,-6661.853478,-79520.712692
283.542570,-296.082377,5773.606348,-78754.617194
283.545855,592.164754,14359.995275,-78907.836294
283.549140,2072.576638,10955.047942,-78754.617194
283.552424,-888.247130,8438.347739,-80133.589091
283.555709,-1480.411884,-888.247130,-79520.712692
283.558994,-1036.288319,-9030.512492,-76915.987999
283.562278,-888.247130,2812.782580,-80133.589091
283.565563,2812.782580,10510.924376,-76762.768900
283.568848,-2664.741391,9622.677246,-77069.207099
283.572133,-1184.329507,14656.077652,-79520.712692
283.575417,-888.247130,14211.954086,-80133.589091
283.578702,-148.041188,3108.864956,-77375.645298
283.581987,296.082377,-592.164754,-77988.521696
283.585271,-592.164754,-20725.766376,-78907.836294
283.588556,-2812.782580,-23686.590144,-78754.617194
283.591847,0.000000,-12287.418637,-79367.493593
283.595137,-1480.411884,-6661.853478,-79214.274493
283.598428,444.123565,1036.288319,-78294.959896
283.601718,1924.535449,8142.265362,-76762.768900
283.605009,-888.247130,888.247130,-75996.673402
283.608299,1480.411884,-10066.800811,-76149.892501
283.611590,1628.453072,-17616.901420,-81052.903688
283.614880,-2072.576638,-13619.789333,-77988.521696
283.618170,-1184.329507,-5921.647536,-79520.712692
283.621461,2664.741391,-6809.894666,-80899.684589
283.624751,296.082377,6365.771101,-78601.398095
283.628042,-1184.329507,11843.295072,-78754.617194
283.631332,-592.164754,15100.201217,-80286.808190
283.634623,1332.370696,9622.677246,-78907.836294
283.637913,444.123565,1924.535449,-78754.617194
283.641204,-2072.576638,-2368.659014,-80286.808190
283.644494,592.164754,-6809.894666,-78601.398095
283.647785,1332.370696,2664.741391,-79827.150892
283.651075,-1332.370696,11695.253884,-75996.673402
283.654366,-2960.823768,13915.871710,-79367.493593
283.657656,-148.041188,12879.583391,-80593.246390
283.660947,1332.370696,8882.471304,-79061.055394
283.664237,-1036.288319,-2368.659014,-76915.987999
283.667528,-4145.153275,-20429.683999,-79520.712692
283.670818,-296.082377,-23094.425390,-78294.959896
283.674108,-2812.782580,-16876.695478,-79214.274493
283.677399,-148.041188,-5921.647536,-77988.521696
283.680689,-740.205942,4293.194464,-79980.369991
283.683980,444.123565,1184.329507,-76762.768900
283.687270,-1036.288319,-7698.141797,-79827.150892
283.690561,-296.082377,-12435.459826,-78907.836294
283.693851,1184.329507,-14508.036463,-79827.150892
283.697164,-740.205942,-19245.354492,-77222.426198
283.700459,-740.205942,-11547.212695,-79061.055394
283.703753,2368.659014,-4293.194464,-79673.931792
283.707048,-1184.329507,6809.894666,-79980.369991
283.710343,-444.123565,11843.295072,-78448.178995
283.713637,0.000000,18801.230927,-81052.903688
283.716932,1036.288319,10214.842000,-77069.207099
283.720227,148.041188,-444.123565,-78601.398095
283.723522,-1480.411884,-2664.741391,-79061.055394
283.726816,-1924.535449,-7994.224174,-80899.684589
283.730111,2516.700203,2368.659014,-78601.398095
283.733406,-148.041188,11547.212695,-78294.959896
283.736701,-2220.617826,16876.695478,-78907.836294
283.739995,592.164754,10362.883188,-80899.684589
283.743290,-1332.370696,10214.842000,-78754.617194
283.746585,-888.247130,-740.205942,-76915.987999
283.749879,-3701.029710,-21317.931130,-78601.398095
283.753174,-2072.576638,-22650.301825,-79520.712692
283.756469,-2072.576638,-13619.789333,-79214.274493
283.759764,296.082377,-2960.823768,-77988.521696
283.763058,-592.164754,3997.112087,-77682.083497
283.766353,1480.411884,888.247130,-77682.083497
283.769648,-2664.741391,-8290.306550,-80593.246390
283.772942,296.082377,-10955.047942,-81359.341888
283.776237,-296.082377,-15396.283594,-80133.589091
283.779532,444.123565,-17764.942608,-77222.426198
283.782827,-1924.535449,-9326.594869,-79520.712692
283.786121,148.041188,-2368.659014,-77835.302597
283.789416,-296.082377,7698.141797,-79520.712692
283.792711,-592.164754,15840.407159,-78601.398095
283.796005,1924.535449,16876.695478,-78907.836294
283.799300,-148.041188,9622.677246,-78448.178995
283.802557,1480.411884,-1332.370696,-78448.178995
283.805814,-7105.977043,-4293.194464,-80133.589091
283.809071,2220.617826,-5921.647536,-79673.931792
283.812328,2220.617826,3404.947333,-79214.274493
283.815585,-1036.288319,10362.883188,-77835.302597
283.818842,-740.205942,13027.624579,-78754.617194
283.822099,-592.164754,13915.871710,-80133.589091
283.825356,-740.205942,5477.523971,-80593.246390
283.828613,-2960.823768,-2960.823768,-76609.549800
283.831870,592.164754,-20133.601622,-78294.959896
283.835127,-3404.947333,-25315.043216,-79367.493593
283.838384,-592.164754,-14656.077652,-79214.274493
283.841641,-1480.411884,-1924.535449,-79980.369991
283.844898,0.000000,7698.141797,-78141.740796
283.848155,2664.741391,-148.041188,-79673.931792
283.851412,-444.123565,-4589.276840,-79520.712692
283.854670,1184.329507,-14508.036463,-79367.493593
283.857927,-444.123565,-17912.983796,-80133.589091
283.861184,-296.082377,-15248.242405,-77682.083497
283.864441,-1184.329507,-5921.647536,-79673.931792
283.867698,2368.659014,-4441.235652,-79980.369991
283.870955,296.082377,11547.212695,-79520.712692
283.874212,-3256.906145,19689.478057,-80286.808190
283.877469,1924.535449,11251.130318,-78448.178995
283.880726,-1776.494261,3701.029710,-79980.369991
283.883983,444.123565,1184.329507,-79367.493593
283.887240,-888.247130,-1776.494261,-79980.369991
283.890497,2220.617826,-592.164754,-79673.931792
283.893754,2664.741391,6809.894666,-77835.302597
283.897011,-4885.359217,17172.777854,-77988.521696
283.900268,0.000000,13767.830521,-78601.398095
283.903525,-740.205942,7846.182985,-79520.712692
283.906792,-296.082377,3256.906145,-77222.426198
283.910058,-1628.453072,-13175.665768,-77682.083497
283.913325,-1184.329507,-19985.560434,-78294.959896
283.916592,-592.164754,-21465.972318,-78601.398095
283.919859,-2072.576638,-8586.388927,-80440.027290
283.923125,592.164754,3701.029710,-78601.398095
283.926392,148.041188,6957.935855,-77988.521696
283.929659,-592.164754,740.205942,-78907.836294
283.932926,148.041188,-16432.571912,-79827.150892
283.936192,740.205942,-15396.283594,-80899.684589
283.939459,2516.700203,-17468.860231,-77528.864398
283.942726,296.082377,-14359.995275,-79061.055394
283.945993,-592.164754,-5181.441594,-81359.341888
283.949259,2664.741391,1924.535449,-79061.055394
283.952526,-592.164754,15100.201217,-80133.589091
283.955793,-444.123565,18061.024985,-78907.836294
283.959060,3997.112087,10214.842000,-77988.521696
283.962326,-1628.453072,3256.906145,-78907.836294
283.965593,-3552.988522,-6513.812290,-77835.302597
283.968860,0.000000,4441.235652,-78448.178995
283.972126,1036.288319,9030.512492,-78294.959896
283.975393,592.164754,5477.523971,-77528.864398
283.978660,-5181.441594,18209.066173,-78448.178995
283.981927,1036.288319,14952.160028,-78294.959896
283.985193,444.123565,8882.471304,-79367.493593
283.988460,-2368.659014,-2960.823768,-77069.207099
283.991727,296.082377,-23242.466579,-77069.207099
283.994994,-4885.359217,-22502.260637,-79061.055394
283.998260,444.123565,-13619.789333,-78907.836294
284.001527,1924.535449,-5773.606348,-78907.836294
284.004794,-888.247130,1332.370696,-79214.274493
284.008061,148.041188,-5329.482782,-76762.768900
284.011335,-1628.453072,-296.082377,-77835.302597
284.014610,1776.494261,-8882.471304,-77835.302597
284.017884,2960.823768,-28423.908173,-77682.083497
284.021159,-5033.400406,-17172.777854,-81359.341888
284.024433,888.247130,-7254.018232,-78448.178995
284.027708,3108.864956,-4441.235652,-80133.589091
284.030982,444.123565,13915.871710,-81206.122788
284.034257,1924.535449,17468.860231,-78141.740796
284.037531,-2516.700203,13175.665768,-79061.055394
284.040806,2812.782580,2812.782580,-76456.330700
284.044080,1332.370696,-5477.523971,-79980.369991
284.047355,-3701.029710,-7846.182985,-81972.218286
284.050629,592.164754,-5921.647536,-79673.931792
284.053904,-1332.370696,2516.700203,-79980.369991
284.057178,-5329.482782,19985.560434,-77375.645298
284.060453,296.082377,18209.066173,-77069.207099
284.063727,-1776.494261,11695.253884,-80593.246390
284.067002,-1480.411884,5477.523971,-76762.768900
284.070276,740.205942,-21762.054695,-75996.673402
284.073551,-5033.400406,-25018.960840,-80440.027290
284.076825,-592.164754,-16432.571912,-78141.740796
284.080100,-1332.370696,-9326.594869,-78294.959896
284.083374,-4145.153275,6661.853478,-78448.178995
284.086649,740.205942,8586.388927,-76762.768900
284.089923,-1036.288319,-8438.347739,-79673.931792
284.093198,-740.205942,-10066.800811,-80440.027290
284.096473,888.247130,-15396.283594,-78754.617194
284.099747,-1184.329507,-20873.807564,-78448.178995
284.103022,-592.164754,-11251.130318,-78907.836294
284.106296,2220.617826,-4441.235652,-78448.178995
284.109571,-148.041188,10214.842000,-79980.369991
284.112845,-3108.864956,18209.066173,-78754.617194
284.116085,1628.453072,17320.819043,-78294.959896
284.119325,-592.164754,4737.318029,-78754.617194
284.122564,-740.205942,-2516.700203,-77682.083497
284.125804,-1036.288319,-6365.771101,-80286.808190
284.129044,-2072.576638,592.164754,-80286.808190
284.132284,-1332.370696,7698.141797,-76149.892501
284.135524,740.205942,10510.924376,-76609.549800
284.138763,-2368.659014,19985.560434,-80286.808190
284.142003,-2664.741391,14508.036463,-77988.521696
284.145243,3108.864956,1332.370696,-77528.864398
284.148483,-3256.906145,-13471.748144,-79367.493593
284.151723,-296.082377,-20577.725188,-76456.330700
