#time,accel_x,accel_y,accel_z
104.802019,-296.082377,-1480.411884,-78754.617194
104.804447,-148.041188,-2664.741391,-79367.493593
104.806874,-296.082377,-2220.617826,-79827.150892
104.809302,-592.164754,-1480.411884,-79827.150892
104.811729,-888.247130,-2960.823768,-79520.712692
104.814156,-296.082377,-2368.659014,-77988.521696
104.816584,740.205942,-1480.411884,-79673.931792
104.819011,-1036.288319,-1776.494261,-78754.617194
104.821439,-592.164754,-296.082377,-78448.178995
104.823940,8290.306550,-2516.700203,-78141.740796
104.826441,9918.759623,0.000000,-79673.931792
104.828941,4885.359217,-2664.741391,-80899.684589
104.831442,3256.906145,-1924.535449,-79367.493593
104.833943,444.123565,-3997.112087,-79061.055394
104.836444,1036.288319,-1628.453072,-80133.589091
104.838945,2516.700203,-2960.823768,-79520.712692
104.841446,5329.482782,-444.123565,-79367.493593
104.843947,6069.688724,-2516.700203,-77988.521696
104.846448,4293.194464,-2960.823768,-79520.712692
104.848949,-4293.194464,-1184.329507,-78754.617194
104.851450,-12435.459826,-1184.329507,-80746.465489
104.853951,-9474.636058,-2368.659014,-79520.712692
104.856452,-3552.988522,-1480.411884,-79520.712692
104.858953,4885.359217,-1924.535449,-78601.398095
104.861453,2812.782580,-1480.411884,-78907.836294
104.863954,-1184.329507,-1036.288319,-78448.178995
104.866455,-9326.594869,-2220.617826,-78141.740796
104.868956,-12287.418637,-1924.535449,-79061.055394
104.871457,-9918.759623,-740.205942,-78907.836294
104.873958,2072.576638,-2812.782580,-77375.645298
104.876459,-1924.535449,-1036.288319,-79061.055394
104.878960,0.000000,-4441.235652,-77988.521696
104.881461,-5329.482782,-2960.823768,-77988.521696
104.883962,-5329.482782,-1184.329507,-77988.521696
104.886463,-296.082377,-2960.823768,-79520.712692
104.888964,-296.082377,-740.205942,-77682.083497
104.891464,4293.194464,-2664.741391,-77988.521696
104.893965,-2664.741391,-2664.741391,-78754.617194
104.896466,-5329.482782,-1924.535449,-77528.864398
104.898967,-9622.677246,-2220.617826,-77682.083497
104.901468,-7698.141797,-740.205942,-78601.398095
104.903969,-444.123565,-1332.370696,-79061.055394
104.906470,740.205942,-1628.453072,-80746.465489
104.908971,1332.370696,-592.164754,-78141.740796
104.911472,-3849.070898,-3552.988522,-78601.398095
104.913973,-5477.523971,-2960.823768,-78601.398095
104.916474,-6661.853478,-2812.782580,-78601.398095
104.918975,-5181.441594,-1332.370696,-78141.740796
104.921476,-3552.988522,-1480.411884,-78754.617194
104.923898,592.164754,-1332.370696,-78294.959896
104.926320,888.247130,-2664.741391,-79673.931792
104.928743,-1776.494261,-1036.288319,-79673.931792
104.931165,-5921.647536,-1628.453072,-77682.083497
104.933588,-1480.411884,-740.205942,-78448.178995
104.936010,7550.100608,-1924.535449,-80133.589091
104.938432,7254.018232,-592.164754,-78754.617194
104.940855,5773.606348,-2812.782580,-78294.959896
104.943277,-1184.329507,-1776.494261,-78601.398095
104.945700,-740.205942,-2664.741391,-79520.712692
104.948122,-2516.700203,-888.247130,-79061.055394
104.950545,5773.606348,-2812.782580,-79214.274493
104.952967,8142.265362,-888.247130,-78907.836294
104.955389,6069.688724,-3256.906145,-79520.712692
104.957812,-444.123565,-2220.617826,-80286.808190
104.960234,-3701.029710,-2368.659014,-78754.617194
104.962657,592.164754,0.000000,-77835.302597
104.965079,7402.059420,-4145.153275,-78754.617194
104.967501,9622.677246,-1184.329507,-80593.246390
104.969924,5773.606348,-444.123565,-79980.369991
104.972346,1776.494261,-2664.741391,-77835.302597
104.974769,-1924.535449,592.164754,-79214.274493
104.977191,9326.594869,-4441.235652,-79827.150892
104.979613,-6069.688724,888.247130,-78907.836294
104.982036,16284.530724,-2368.659014,-79061.055394
104.984458,-9030.512492,-2072.576638,-78907.836294
104.986881,6661.853478,-2072.576638,-79673.931792
104.989303,-4293.194464,-3256.906145,-81512.560987
104.991726,7994.224174,-444.123565,-76609.549800
104.994148,6069.688724,-3701.029710,-79367.493593
104.996570,8438.347739,-2220.617826,-78448.178995
104.998993,4737.318029,-2664.741391,-77835.302597
105.001415,-3108.864956,-592.164754,-79673.931792
105.003838,-3849.070898,-2072.576638,-78141.740796
105.006260,-148.041188,-2664.741391,-79673.931792
105.008682,10214.842000,-2664.741391,-79673.931792
105.011105,6217.729913,-444.123565,-78448.178995
105.013527,6365.771101,-2220.617826,-80440.027290
105.015950,-1332.370696,-444.123565,-79061.055394
105.018372,-5181.441594,-2072.576638,-79520.712692
105.020866,1184.329507,-1332.370696,-79214.274493
105.023360,7105.977043,-2072.576638,-79673.931792
105.025854,-888.247130,-1184.329507,-78294.959896
105.028348,-5625.565159,-3701.029710,-79520.712692
105.030842,-9918.759623,-2664.741391,-79367.493593
105.033336,-2516.700203,-1628.453072,-78601.398095
105.035830,-4589.276840,-1776.494261,-78907.836294
105.038324,2220.617826,-1184.329507,-78754.617194
105.040818,-3404.947333,-1924.535449,-78601.398095
105.043312,-5181.441594,-1776.494261,-79061.055394
105.045806,-10807.006753,-2220.617826,-78141.740796
105.048300,-2368.659014,-2368.659014,-78754.617194
105.050794,-2072.576638,-1332.370696,-79367.493593
105.053288,2960.823768,-1036.288319,-79061.055394
105.055782,-1924.535449,-2072.576638,-78907.836294
105.058276,-7846.182985,-2812.782580,-80440.027290
105.060770,-9178.553681,-1480.411884,-78141.740796
105.063264,-6957.935855,-2960.823768,-78754.617194
105.065758,-2812.782580,-2072.576638,-79061.055394
105.068252,-2368.659014,-1332.370696,-78448.178995
105.070746,3108.864956,-1924.535449,-79520.712692
105.073240,-3701.029710,-1924.535449,-80133.589091
105.075734,-592.164754,-740.205942,-79061.055394
105.078228,-4885.359217,-1628.453072,-79061.055394
105.080722,3552.988522,-1924.535449,-78141.740796
105.083216,-2368.659014,-1332.370696,-78907.836294
105.085710,-9770.718434,-1036.288319,-79980.369991
105.088204,-10955.047942,-1184.329507,-77682.083497
105.090698,-8882.471304,-2812.782580,-78448.178995
105.093192,-1776.494261,-2072.576638,-78601.398095
105.095686,1776.494261,-1776.494261,-79061.055394
105.098180,1628.453072,-296.082377,-78907.836294
105.100674,-5477.523971,-3701.029710,-77835.302597
105.103169,-7698.141797,-2664.741391,-78448.178995
105.105663,-8586.388927,-1628.453072,-80286.808190
105.108157,-4885.359217,-1184.329507,-79673.931792
105.110651,-296.082377,-1332.370696,-78294.959896
105.113145,2812.782580,-2960.823768,-78294.959896
105.115639,2072.576638,-148.041188,-77835.302597
105.118133,-6217.729913,-1036.288319,-78754.617194
105.120572,-1036.288319,-1924.535449,-77682.083497
105.123011,5773.606348,-3404.947333,-78754.617194
105.125451,9474.636058,-1184.329507,-79214.274493
105.127890,6809.894666,-2220.617826,-80593.246390
105.130330,0.000000,-1628.453072,-79980.369991
105.132769,-3256.906145,-3849.070898,-78294.959896
105.135208,-1924.535449,-1184.329507,-79520.712692
105.137648,5033.400406,-2072.576638,-79061.055394
105.140087,6217.729913,-1480.411884,-78294.959896
105.142527,6365.771101,-3849.070898,-78294.959896
105.144966,-296.082377,-1480.411884,-78294.959896
105.147406,-592.164754,-2812.782580,-78448.178995
105.149845,-2516.700203,-444.123565,-79673.931792
105.152284,-2664.741391,-1332.370696,-78907.836294
105.154724,7105.977043,-2664.741391,-76609.549800
105.157163,7698.141797,-4589.276840,-80440.027290
105.159603,-2220.617826,-1036.288319,-79673.931792
105.162042,1184.329507,-1628.453072,-76762.768900
105.164481,3997.112087,-3256.906145,-78141.740796
105.166921,-7254.018232,-1036.288319,-78907.836294
105.169360,8882.471304,-1776.494261,-79367.493593
105.171800,-3552.988522,-4737.318029,-80440.027290
105.174239,11399.171507,-888.247130,-76149.892501
105.176679,1480.411884,-2812.782580,-80899.684589
105.179118,10510.924376,-1332.370696,-79214.274493
105.181557,6809.894666,1184.329507,-77835.302597
105.183997,2960.823768,-4441.235652,-80440.027290
105.186436,-2220.617826,148.041188,-78754.617194
105.188876,-1036.288319,-3256.906145,-80440.027290
105.191315,888.247130,-444.123565,-79980.369991
105.193754,8142.265362,-1628.453072,-78294.959896
105.196194,7105.977043,-4293.194464,-78754.617194
105.198633,5181.441594,-1480.411884,-79061.055394
105.201073,-3404.947333,-1628.453072,-79214.274493
105.203512,-2664.741391,-2812.782580,-79367.493593
105.205952,2812.782580,-1924.535449,-78448.178995
105.208391,4737.318029,-1924.535449,-78294.959896
105.210830,-4145.153275,-1036.288319,-78601.398095
105.213270,-6513.812290,-1628.453072,-78601.398095
105.215709,-7698.141797,-2812.782580,-78754.617194
105.218213,-3552.988522,-740.205942,-78601.398095
105.220717,-2368.659014,-1924.535449,-79367.493593
105.223220,444.123565,296.082377,-78448.178995
105.225724,-3997.112087,-1628.453072,-78294.959896
105.228228,-6809.894666,-2072.576638,-78141.740796
105.230731,-6809.894666,-2368.659014,-80133.589091
105.233235,-3108.864956,-2368.659014,-78907.836294
105.235739,444.123565,-2368.659014,-79214.274493
105.238243,-592.164754,-3108.864956,-79367.493593
105.240746,-1036.288319,-1332.370696,-79980.369991
105.243250,-13619.789333,-740.205942,-81052.903688
105.245754,-4441.235652,-3849.070898,-77069.207099
105.248258,-3108.864956,-4145.153275,-76609.549800
105.250761,7254.018232,-2072.576638,-78448.178995
105.253265,-8290.306550,444.123565,-80746.465489
105.255769,3849.070898,-1036.288319,-81512.560987
105.258272,-6661.853478,-3404.947333,-79367.493593
105.260776,1776.494261,1480.411884,-77528.864398
105.263280,-4589.276840,-3552.988522,-83351.190182
105.265784,-6809.894666,0.000000,-78907.836294
105.268287,-7550.100608,-3552.988522,-77835.302597
105.270791,-9770.718434,-2368.659014,-77835.302597
105.273295,-7698.141797,-3404.947333,-78754.617194
105.275798,-1332.370696,-296.082377,-81359.341888
105.278302,2812.782580,-3404.947333,-77835.302597
105.280806,-3256.906145,-1036.288319,-79061.055394
105.283310,-4293.194464,-3997.112087,-79061.055394
105.285813,-10214.842000,888.247130,-79061.055394
105.288317,-9030.512492,-2960.823768,-78294.959896
105.290821,-2664.741391,296.082377,-77682.083497
105.293324,444.123565,-3701.029710,-78294.959896
105.295828,2664.741391,-1184.329507,-79367.493593
105.298332,-3701.029710,-2220.617826,-79367.493593
105.300836,-4145.153275,-2220.617826,-78601.398095
105.303339,4589.276840,-2516.700203,-78601.398095
105.305843,7550.100608,-1924.535449,-79061.055394
105.308347,7550.100608,-740.205942,-78294.959896
105.310850,2220.617826,-3849.070898,-79980.369991
105.313354,-296.082377,-2072.576638,-77988.521696
105.315858,-1184.329507,-2368.659014,-77375.645298
105.318407,3256.906145,-1924.535449,-80286.808190
105.320957,8438.347739,-296.082377,-78294.959896
105.323506,5625.565159,-2664.741391,-79367.493593
105.326055,1776.494261,-2368.659014,-78907.836294
105.328605,-1480.411884,-2220.617826,-79520.712692
105.331154,888.247130,-740.205942,-79673.931792
105.333703,-6217.729913,-1184.329507,-79980.369991
105.336253,9178.553681,-3849.070898,-76149.892501
105.338802,592.164754,-1776.494261,-79673.931792
105.341351,2368.659014,-1332.370696,-78907.836294
105.343901,740.205942,-1628.453072,-78448.178995
105.346450,-3404.947333,-2960.823768,-77682.083497
105.349000,2220.617826,-2072.576638,-79214.274493
105.351549,-888.247130,-2072.576638,-81512.560987
105.354098,4293.194464,-888.247130,-78448.178995
105.356648,5329.482782,-3849.070898,-78754.617194
105.359197,5625.565159,-1332.370696,-77988.521696
105.361746,7994.224174,-2812.782580,-78907.836294
105.364296,4885.359217,-148.041188,-77528.864398
105.366845,1480.411884,-2368.659014,-78448.178995
105.369395,740.205942,-2516.700203,-79520.712692
105.371944,-148.041188,-740.205942,-79673.931792
105.374493,3108.864956,-2812.782580,-80593.246390
105.377043,7105.977043,-1776.494261,-77375.645298
105.379592,6069.688724,-1332.370696,-79061.055394
105.382141,148.041188,-3552.988522,-79061.055394
105.384691,-2960.823768,-1332.370696,-78907.836294
105.387240,2220.617826,-2220.617826,-78448.178995
105.389789,2368.659014,-1628.453072,-78754.617194
105.392339,-5329.482782,-1628.453072,-78141.740796
105.394888,-7105.977043,-1924.535449,-78754.617194
105.397438,-5773.606348,-2220.617826,-79520.712692
105.399987,-1332.370696,-2368.659014,-79367.493593
105.402536,-2368.659014,-2072.576638,-78907.836294
105.405086,-592.164754,-2072.576638,-79214.274493
105.407635,-5625.565159,-148.041188,-77682.083497
105.410184,-7550.100608,-1480.411884,-79367.493593
105.412734,-6661.853478,-1924.535449,-79673.931792
105.415283,-1036.288319,-1924.535449,-78141.740796
105.417833,888.247130,-740.205942,-78907.836294
105.420414,-3997.112087,-1480.411884,-78754.617194
105.422995,1036.288319,-2072.576638,-80593.246390
105.425577,-10658.965565,-444.123565,-80286.808190
105.428158,-4737.318029,-1332.370696,-78141.740796
105.430740,-7105.977043,-2664.741391,-77375.645298
105.433321,6069.688724,-1776.494261,-77222.426198
105.435903,444.123565,-2368.659014,-79673.931792
105.438484,-2516.700203,-1184.329507,-78601.398095
105.441066,2664.741391,-2664.741391,-80133.589091
105.443647,740.205942,-3849.070898,-80286.808190
105.446229,-3701.029710,2368.659014,-78754.617194
105.448810,-9326.594869,-3404.947333,-81665.780087
105.451392,-7254.018232,-1184.329507,-78448.178995
105.453973,-6661.853478,-2368.659014,-78448.178995
105.456555,-4885.359217,-2812.782580,-78754.617194
105.459136,1184.329507,-148.041188,-79673.931792
105.461718,-1776.494261,-3552.988522,-80746.465489
105.464299,-1776.494261,-1480.411884,-78294.959896
105.466881,-9770.718434,-2960.823768,-79520.712692
105.469462,-6069.688724,-2220.617826,-80593.246390
105.472044,-3256.906145,-1184.329507,-78448.178995
105.474625,1924.535449,-2960.823768,-79673.931792
105.477207,1036.288319,-148.041188,-77835.302597
105.479788,-1924.535449,-2072.576638,-78754.617194
105.482370,-148.041188,-2220.617826,-79673.931792
105.484951,4885.359217,-1184.329507,-79214.274493
105.487532,8142.265362,-1332.370696,-78294.959896
105.490114,3256.906145,-2072.576638,-79214.274493
105.492695,2812.782580,-2516.700203,-78754.617194
105.495277,-2368.659014,-888.247130,-79520.712692
105.497858,1628.453072,-2664.741391,-78448.178995
105.500440,3256.906145,-3108.864956,-78754.617194
105.503042,7846.182985,-1332.370696,-77988.521696
105.505645,6069.688724,-1776.494261,-78601.398095
105.508247,-1628.453072,-2664.741391,-79214.274493
105.510850,-2516.700203,-1776.494261,-78448.178995
105.513452,-1776.494261,-2368.659014,-77528.864398
105.516054,5033.400406,-2368.659014,-78907.836294
105.518657,4145.153275,-1332.370696,-80133.589091
105.521259,6365.771101,-1036.288319,-78754.617194
105.523862,-3849.070898,-3404.947333,-78294.959896
105.526464,-2368.659014,-1628.453072,-80440.027290
105.529067,-1332.370696,-2368.659014,-79061.055394
105.531669,8290.306550,-3256.906145,-78294.959896
105.534272,-4293.194464,-1480.411884,-78448.178995
105.536874,4589.276840,-4589.276840,-78907.836294
105.539476,4737.318029,-444.123565,-78141.740796
105.542079,8734.430116,-2072.576638,-78448.178995
105.544681,2812.782580,-2220.617826,-78448.178995
105.547284,2368.659014,-2960.823768,-77682.083497
105.549886,296.082377,-1184.329507,-78448.178995
105.552489,2960.823768,-1924.535449,-79214.274493
105.555091,5625.565159,-2072.576638,-78448.178995
105.557693,6217.729913,-444.123565,-79061.055394
105.560296,2812.782580,-1332.370696,-79367.493593
105.562898,-2664.741391,-296.082377,-78448.178995
105.565501,-1184.329507,-4589.276840,-79367.493593
105.568103,3256.906145,-740.205942,-77835.302597
105.570706,-2368.659014,-2072.576638,-79520.712692
105.573308,-7254.018232,-1480.411884,-78294.959896
105.575910,-7846.182985,-4145.153275,-78907.836294
105.578513,-2960.823768,-1332.370696,-79214.274493
105.581115,-2368.659014,-2072.576638,-78907.836294
105.583718,148.041188,-1628.453072,-79827.150892
105.586320,-3108.864956,-888.247130,-77528.864398
105.588923,-8290.306550,-148.041188,-77835.302597
105.591525,-7254.018232,-4589.276840,-79673.931792
105.594127,-6957.935855,-296.082377,-79214.274493
105.596730,2368.659014,-3404.947333,-79214.274493
105.599332,1924.535449,444.123565,-77988.521696
105.601935,2072.576638,-3108.864956,-78294.959896
105.604537,-7550.100608,-1036.288319,-80440.027290
105.607143,-7254.018232,-740.205942,-79520.712692
105.609759,-2368.659014,444.123565,-78601.398095
105.612374,1332.370696,-3552.988522,-79980.369991
105.614990,-296.082377,-2664.741391,-80440.027290
105.617605,2368.659014,-1332.370696,-77988.521696
105.620221,1184.329507,-2072.576638,-78907.836294
105.622837,-9622.677246,-888.247130,-80133.589091
105.625452,-5773.606348,-3256.906145,-79061.055394
105.628068,-3108.864956,-2812.782580,-79980.369991
105.630683,-8438.347739,-592.164754,-79520.712692
105.633299,-4293.194464,-1776.494261,-77375.645298
105.635915,-4145.153275,-1480.411884,-77988.521696
105.638530,-2220.617826,-3552.988522,-79520.712692
105.641146,-1184.329507,296.082377,-78601.398095
105.643761,-4145.153275,-2664.741391,-79214.274493
105.646377,-7994.224174,-740.205942,-78448.178995
105.648993,-5625.565159,-4145.153275,-79520.712692
105.651608,-2220.617826,296.082377,-78754.617194
105.654224,592.164754,-888.247130,-78907.836294
105.656839,444.123565,-3849.070898,-79673.931792
105.659455,-3256.906145,-1036.288319,-77988.521696
105.662071,5181.441594,-3256.906145,-78448.178995
105.664686,5477.523971,-2072.576638,-78754.617194
105.667302,5625.565159,-1776.494261,-80133.589091
105.669917,1776.494261,-2072.576638,-77222.426198
105.672533,-148.041188,-1036.288319,-79061.055394
105.675149,444.123565,-1924.535449,-79061.055394
105.677764,592.164754,-1628.453072,-78754.617194
105.680380,9622.677246,-2368.659014,-77375.645298
105.682995,5329.482782,-1776.494261,-79367.493593
105.685611,4737.318029,-1628.453072,-79980.369991
105.688226,-296.082377,-1628.453072,-79367.493593
105.690842,592.164754,-2072.576638,-79520.712692
105.693458,-2812.782580,-592.164754,-78294.959896
105.696073,2960.823768,-1480.411884,-81359.341888
105.698689,6957.935855,-2072.576638,-78907.836294
105.701304,-2072.576638,-3552.988522,-78907.836294
105.703920,-1628.453072,-1480.411884,-76303.111601
105.706536,-1924.535449,-3552.988522,-79214.274493
105.709151,0.000000,-888.247130,-79827.150892
105.711773,2516.700203,-1036.288319,-78601.398095
105.714395,6957.935855,-3404.947333,-78601.398095
105.717017,5477.523971,-1332.370696,-79827.150892
105.719639,7105.977043,-1924.535449,-79980.369991
105.722261,740.205942,-888.247130,-77682.083497
105.724883,3256.906145,-3701.029710,-78294.959896
105.727504,0.000000,-2516.700203,-79520.712692
105.730126,4145.153275,-1332.370696,-80133.589091
105.732748,5477.523971,-2960.823768,-80746.465489
105.735370,4441.235652,888.247130,-76456.330700
105.737992,1184.329507,-3701.029710,-79214.274493
105.740614,-444.123565,-1924.535449,-79367.493593
105.743236,444.123565,-2960.823768,-79214.274493
105.745858,3849.070898,-1036.288319,-78754.617194
105.748480,-6365.771101,-1628.453072,-78907.836294
105.751101,-7402.059420,-1480.411884,-78754.617194
105.753723,-7254.018232,-3552.988522,-81206.122788
105.756345,-1924.535449,-1036.288319,-79367.493593
105.758967,-1628.453072,-1924.535449,-79061.055394
105.761589,888.247130,-2664.741391,-80286.808190
105.764211,-6957.935855,-444.123565,-77988.521696
105.766833,-6957.935855,-2368.659014,-78601.398095
105.769455,-8290.306550,-3404.947333,-78907.836294
105.772077,-2960.823768,-2960.823768,-79061.055394
105.774698,148.041188,-1184.329507,-78448.178995
105.777320,-148.041188,-444.123565,-79367.493593
105.779942,-10362.883188,-2812.782580,-79367.493593
105.782564,-6513.812290,-1036.288319,-79673.931792
105.785186,-7994.224174,-592.164754,-78907.836294
105.787808,-888.247130,-3849.070898,-78294.959896
105.790430,-592.164754,-1332.370696,-75996.673402
105.793052,-888.247130,-2812.782580,-78141.740796
105.795674,-444.123565,-2960.823768,-80746.465489
105.798295,-5625.565159,-2516.700203,-79061.055394
105.800917,-1332.370696,-1628.453072,-77682.083497
105.803539,-9474.636058,-2220.617826,-80133.589091
105.806161,-5773.606348,-1184.329507,-78294.959896
105.808783,-9770.718434,-1776.494261,-79061.055394
105.811405,-148.041188,-3256.906145,-79520.712692
105.814027,-4885.359217,-148.041188,-78294.959896
105.816652,-740.205942,-4441.235652,-79214.274493
105.819277,-3849.070898,148.041188,-77988.521696
105.821903,-7105.977043,-1628.453072,-80133.589091
105.824528,-3552.988522,-1480.411884,-78448.178995
105.827153,-2072.576638,-3108.864956,-79061.055394
105.829779,1628.453072,-296.082377,-78907.836294
105.832404,-2812.782580,-1628.453072,-78907.836294
105.835029,1036.288319,-2072.576638,-79827.150892
105.837654,5625.565159,-2220.617826,-79214.274493
105.840280,9326.594869,-2368.659014,-78754.617194
105.842905,2516.700203,-1036.288319,-78448.178995
105.845530,1332.370696,-3552.988522,-79367.493593
105.848156,-2368.659014,-1184.329507,-78448.178995
105.850781,1480.411884,-2664.741391,-80746.465489
105.853406,7254.018232,-2516.700203,-79980.369991
105.856032,7105.977043,-148.041188,-78448.178995
105.858657,6365.771101,-4589.276840,-79367.493593
105.861282,592.164754,-888.247130,-78294.959896
105.863907,3701.029710,-3552.988522,-80286.808190
105.866533,-4441.235652,1776.494261,-81052.903688
105.869158,6365.771101,-1924.535449,-79061.055394
105.871783,7402.059420,-444.123565,-79214.274493
105.874409,-444.123565,-2072.576638,-81512.560987
105.877034,-2664.741391,-1036.288319,-80133.589091
105.879659,-1036.288319,-1924.535449,-78754.617194
105.882284,-2072.576638,-4145.153275,-78294.959896
105.884910,5329.482782,-1480.411884,-77375.645298
105.887535,6069.688724,-3256.906145,-78907.836294
105.890160,6957.935855,-1776.494261,-77988.521696
105.892786,5625.565159,-3997.112087,-77988.521696
105.895411,2812.782580,-1776.494261,-79061.055394
105.898036,2960.823768,-1924.535449,-77835.302597
105.900662,592.164754,-1036.288319,-79673.931792
105.903287,5181.441594,-1332.370696,-78601.398095
105.905912,4145.153275,-2368.659014,-79520.712692
105.908537,4293.194464,-1184.329507,-78294.959896
105.911163,-592.164754,-1628.453072,-79367.493593
105.913788,-444.123565,-4589.276840,-77835.302597
105.916413,6513.812290,-740.205942,-77069.207099
105.919039,-2368.659014,-740.205942,-79673.931792
105.921665,-7402.059420,-740.205942,-78907.836294
105.924292,-10807.006753,-2516.700203,-78907.836294
105.926919,-4293.194464,-3108.864956,-77835.302597
105.929546,-740.205942,-1628.453072,-78601.398095
105.932172,296.082377,-1036.288319,-79673.931792
105.934799,-2812.782580,148.041188,-77988.521696
105.937426,-7698.141797,-2516.700203,-78294.959896
105.940053,-10214.842000,-2220.617826,-77528.864398
105.942679,-6069.688724,-2960.823768,-80133.589091
105.945306,296.082377,-2220.617826,-79673.931792
105.947933,2812.782580,444.123565,-78141.740796
105.950560,-5477.523971,-2516.700203,-80286.808190
105.953186,-5773.606348,1776.494261,-80286.808190
105.955813,-11103.089130,-1480.411884,-80286.808190
105.958440,4145.153275,-592.164754,-78601.398095
105.961067,-2812.782580,-4589.276840,-79673.931792
105.963693,2516.700203,0.000000,-76609.549800
105.966320,-2812.782580,-3404.947333,-80593.246390
105.968947,-4293.194464,-888.247130,-77682.083497
105.971574,592.164754,-3552.988522,-80286.808190
105.974201,-11547.212695,-4441.235652,-79214.274493
105.976827,-6069.688724,592.164754,-78601.398095
105.979454,-7402.059420,-2220.617826,-81512.560987
105.982081,-1332.370696,-2072.576638,-79367.493593
105.984708,-6809.894666,-2072.576638,-79061.055394
105.987334,-444.123565,-1924.535449,-77988.521696
105.989961,-5773.606348,-1628.453072,-79827.150892
105.992588,-5477.523971,-1036.288319,-79673.931792
105.995215,-5477.523971,-3997.112087,-77528.864398
105.997841,1332.370696,-1480.411884,-79673.931792
106.000468,-1332.370696,-1332.370696,-79214.274493
106.003095,-3108.864956,-1332.370696,-79214.274493
106.005722,4737.318029,-3552.988522,-79061.055394
106.008348,8586.388927,-2072.576638,-78448.178995
106.010975,7402.059420,-1480.411884,-78448.178995
106.013602,3404.947333,-2664.741391,-80133.589091
106.016229,-740.205942,-1036.288319,-78754.617194
106.018855,888.247130,-2960.823768,-77069.207099
106.021482,2516.700203,-2664.741391,-80286.808190
106.024109,7105.977043,0.000000,-78294.959896
106.026734,7698.141797,-1332.370696,-78448.178995
106.029359,2960.823768,-4589.276840,-78907.836294
106.031984,-1480.411884,-1184.329507,-77375.645298
106.034609,-7550.100608,-2368.659014,-80286.808190
106.037234,2368.659014,-2368.659014,-77835.302597
106.039859,1924.535449,-1924.535449,-77682.083497
106.042484,5921.647536,-5625.565159,-79061.055394
106.045109,3701.029710,-888.247130,-77375.645298
106.047734,-3701.029710,-1776.494261,-79520.712692
106.050359,4145.153275,-1776.494261,-78448.178995
106.052984,-4885.359217,-2072.576638,-79061.055394
106.055609,3701.029710,-4441.235652,-78141.740796
106.058234,8438.347739,-888.247130,-76762.768900
106.060859,5921.647536,-1776.494261,-79367.493593
106.063484,4293.194464,-2220.617826,-77222.426198
106.066109,-1036.288319,-3701.029710,-79061.055394
106.068734,2072.576638,-592.164754,-78141.740796
106.071359,4737.318029,-2220.617826,-79673.931792
106.073985,7105.977043,-1776.494261,-79520.712692
106.076610,3256.906145,-1924.535449,-79367.493593
106.079235,-296.082377,-2072.576638,-78448.178995
106.081860,-148.041188,-1924.535449,-79061.055394
106.084485,4293.194464,-2072.576638,-78754.617194
106.087110,-4441.235652,-888.247130,-77682.083497
106.089735,-7994.224174,-3108.864956,-78294.959896
106.092360,-7550.100608,-2072.576638,-79673.931792
106.094985,-2960.823768,-1776.494261,-78754.617194
106.097610,-444.123565,-2072.576638,-79520.712692
106.100235,-296.082377,-2072.576638,-79520.712692
106.102860,-4589.276840,592.164754,-78601.398095
106.105485,-9030.512492,-1036.288319,-79367.493593
106.108110,-8734.430116,-2960.823768,-78601.398095
106.110735,-3849.070898,-3404.947333,-79827.150892
106.113360,592.164754,-2220.617826,-78601.398095
106.115985,-1184.329507,444.123565,-77682.083497
106.118610,3404.947333,-3701.029710,-79520.712692
106.121235,-10658.965565,-1184.329507,-79827.150892
106.123860,-6809.894666,0.000000,-78907.836294
106.126485,1036.288319,-1036.288319,-80133.589091
106.129110,-5773.606348,-3849.070898,-80286.808190
106.131733,4145.153275,-2812.782580,-78294.959896
106.134356,-1036.288319,-3849.070898,-78448.178995
106.136979,-2812.782580,3256.906145,-76915.987999
106.139602,-11251.130318,-3701.029710,-81512.560987
106.142225,-9178.553681,-2072.576638,-78754.617194
106.144848,-3997.112087,-740.205942,-77835.302597
106.147471,-7698.141797,-2960.823768,-81665.780087
106.150094,-296.082377,-888.247130,-78754.617194
106.152717,-4145.153275,-3849.070898,-79214.274493
106.155340,-2072.576638,-1036.288319,-77835.302597
106.157962,-8438.347739,-2516.700203,-79673.931792
106.160585,-4589.276840,-592.164754,-78601.398095
106.163208,-2072.576638,-3256.906145,-79980.369991
106.165831,-740.205942,-3701.029710,-78294.959896
106.168454,-1924.535449,0.000000,-78294.959896
106.171077,4145.153275,-3404.947333,-80133.589091
106.173700,9622.677246,296.082377,-77528.864398
106.176323,6809.894666,-3256.906145,-78448.178995
106.178946,2664.741391,-888.247130,-78601.398095
106.181569,-2072.576638,-2664.741391,-79673.931792
106.184192,296.082377,-888.247130,-78294.959896
106.186815,2516.700203,-2368.659014,-79061.055394
106.189438,9178.553681,-2368.659014,-80133.589091
106.192061,6957.935855,-888.247130,-79673.931792
106.194683,5773.606348,-2220.617826,-79520.712692
106.197306,-592.164754,-3108.864956,-79520.712692
106.199929,-7105.977043,-1332.370696,-79061.055394
106.202552,-1628.453072,-1332.370696,-77528.864398
106.205175,10214.842000,-2812.782580,-78448.178995
106.207798,2960.823768,-1184.329507,-79367.493593
106.210421,592.164754,-2072.576638,-76915.987999
106.213044,-3256.906145,-2664.741391,-77988.521696
106.215667,3108.864956,-1776.494261,-78601.398095
106.218290,5181.441594,-1036.288319,-79214.274493
106.220913,7846.182985,-2072.576638,-80746.465489
106.223536,7105.977043,-1628.453072,-79367.493593
106.226159,8882.471304,-3404.947333,-78754.617194
106.228782,1924.535449,-1480.411884,-78907.836294
106.231404,1776.494261,-4737.318029,-80286.808190
106.234027,2516.700203,-1924.535449,-77682.083497
106.236648,6957.935855,-592.164754,-78294.959896
106.239269,5329.482782,-1924.535449,-78907.836294
106.241889,2220.617826,-1776.494261,-79827.150892
106.244510,1036.288319,-4145.153275,-80133.589091
106.247130,3552.988522,-1628.453072,-78601.398095
106.249751,-2960.823768,0.000000,-78754.617194
106.252372,-8734.430116,-1924.535449,-79061.055394
106.254992,-8438.347739,-2664.741391,-77988.521696
106.257613,-3256.906145,-2220.617826,-78448.178995
106.260233,888.247130,-888.247130,-79520.712692
106.262854,-1184.329507,-2516.700203,-79673.931792
106.265475,-1628.453072,-1036.288319,-79673.931792
106.268095,-8438.347739,-1332.370696,-78907.836294
106.270716,-9474.636058,-1332.370696,-79214.274493
106.273336,-3849.070898,-2516.700203,-79214.274493
106.275957,592.164754,-2368.659014,-78907.836294
106.278578,-5033.400406,-1480.411884,-77988.521696
106.281198,-2368.659014,-5329.482782,-80593.246390
106.283819,-6365.771101,1628.453072,-78141.740796
106.286440,-2960.823768,-3404.947333,-79673.931792
106.289060,-4441.235652,-2072.576638,-77835.302597
106.291681,3997.112087,-1776.494261,-79673.931792
106.294301,4145.153275,-2368.659014,-78601.398095
106.296922,-12583.501014,-1036.288319,-78601.398095
106.299543,-5625.565159,-2960.823768,-77988.521696
106.302163,-10510.924376,-3256.906145,-78907.836294
106.304784,-7254.018232,444.123565,-78294.959896
106.307404,-6365.771101,-2072.576638,-78294.959896
106.310025,-296.082377,-4145.153275,-80133.589091
106.312646,-4145.153275,-2072.576638,-80133.589091
106.315266,-4441.235652,-592.164754,-78907.836294
106.317887,-8438.347739,-1924.535449,-79980.369991
106.320507,-5625.565159,-1776.494261,-77528.864398
106.323128,0.000000,-4145.153275,-77682.083497
106.325749,-1184.329507,-1332.370696,-78601.398095
106.328369,-3108.864956,-1480.411884,-78294.959896
106.330990,2220.617826,-2220.617826,-78754.617194
106.333610,6957.935855,-2664.741391,-78601.398095
106.336231,8586.388927,-740.205942,-79520.712692
106.338852,2664.741391,-888.247130,-79827.150892
106.341469,-1628.453072,-2072.576638,-79214.274493
106.344087,-1332.370696,-2220.617826,-77682.083497
106.346705,2220.617826,-3256.906145,-79061.055394
106.349323,5329.482782,-148.041188,-79061.055394
106.351941,12287.418637,-1776.494261,-79214.274493
106.354559,4145.153275,-3108.864956,-79367.493593
106.357177,-888.247130,-1332.370696,-79673.931792
106.359795,-5477.523971,-1184.329507,-79673.931792
106.362413,3701.029710,-740.205942,-78294.959896
106.365030,-2368.659014,-2664.741391,-79061.055394
106.367648,6513.812290,-592.164754,-77222.426198
106.370266,2220.617826,-2516.700203,-79980.369991
106.372884,-4737.318029,-1332.370696,-80746.465489
106.375502,592.164754,-148.041188,-78601.398095
106.378120,-740.205942,-3256.906145,-80440.027290
106.380738,7105.977043,444.123565,-79367.493593
106.383356,10807.006753,-2812.782580,-79367.493593
106.385973,4737.318029,-1184.329507,-78907.836294
106.388591,3849.070898,-4737.318029,-78448.178995
106.391209,-1036.288319,-1036.288319,-77835.302597
106.393827,3404.947333,-3849.070898,-79827.150892
106.396445,2960.823768,592.164754,-78601.398095
106.399063,4589.276840,-2812.782580,-78754.617194
106.401681,3997.112087,-4441.235652,-79061.055394
106.404299,4589.276840,-2220.617826,-77988.521696
106.406917,1776.494261,-148.041188,-78754.617194
106.409534,-10807.006753,-1036.288319,-79061.055394
106.412152,-10658.965565,-2664.741391,-77375.645298
106.414770,-6069.688724,-3256.906145,-78601.398095
106.417388,148.041188,-1480.411884,-79673.931792
106.420006,740.205942,-1036.288319,-78294.959896
106.422624,0.000000,-2516.700203,-79367.493593
106.425242,-5921.647536,-2368.659014,-78448.178995
106.427860,-10362.883188,148.041188,-78141.740796
106.430477,-8586.388927,-4145.153275,-80440.027290
106.433095,-2664.741391,-1776.494261,-78754.617194
106.435713,592.164754,-3108.864956,-76915.987999
106.438331,5921.647536,-2516.700203,-77835.302597
106.440949,-3108.864956,296.082377,-80133.589091
106.443567,-10955.047942,-592.164754,-78448.178995
106.446181,2220.617826,-1480.411884,-79061.055394
106.448794,-7402.059420,-2072.576638,-79673.931792
106.451408,4293.194464,-1776.494261,-80133.589091
106.454021,1184.329507,-1332.370696,-78294.959896
106.456635,-2368.659014,-1480.411884,-79214.274493
106.459249,-11843.295072,-1332.370696,-79980.369991
106.461862,-9178.553681,-3256.906145,-80286.808190
106.464476,-6661.853478,-444.123565,-77835.302597
106.467090,-2220.617826,-4293.194464,-80133.589091
106.469703,148.041188,-1036.288319,-79061.055394
106.472317,-2812.782580,-2812.782580,-80286.808190
106.474931,-8734.430116,-740.205942,-77528.864398
106.477544,-6661.853478,-3256.906145,-78294.959896
106.480158,-3108.864956,-2220.617826,-78754.617194
106.482772,-2516.700203,-592.164754,-79214.274493
106.485385,-296.082377,-1184.329507,-78907.836294
106.487999,4293.194464,-2220.617826,-78907.836294
106.490613,7550.100608,-2220.617826,-78907.836294
106.493226,7254.018232,-1036.288319,-79061.055394
106.495840,3108.864956,-1924.535449,-79214.274493
106.498454,-3256.906145,-740.205942,-78141.740796
106.501067,-148.041188,-4441.235652,-79367.493593
106.503681,1924.535449,-1924.535449,-78907.836294
106.506295,9178.553681,-2072.576638,-78907.836294
106.508908,7994.224174,-1036.288319,-78754.617194
106.511522,7254.018232,-3404.947333,-79367.493593
106.514136,1480.411884,-148.041188,-79061.055394
106.516749,-2960.823768,-2960.823768,-80440.027290
106.519363,-2072.576638,2072.576638,-77835.302597
106.521976,4293.194464,-4145.153275,-77682.083497
106.524590,4589.276840,-2664.741391,-78754.617194
106.527204,888.247130,-1184.329507,-78601.398095
106.529817,-8142.265362,-888.247130,-78448.178995
106.532431,8290.306550,-1480.411884,-78141.740796
106.535045,6069.688724,-1776.494261,-80593.246390
106.537658,11547.212695,-1776.494261,-80746.465489
106.540272,9326.594869,-1480.411884,-78754.617194
106.542886,5329.482782,-3404.947333,-79520.712692
106.545499,2072.576638,-2072.576638,-76762.768900
106.548113,0.000000,-3256.906145,-77988.521696
106.550669,4441.235652,444.123565,-77375.645298
106.553224,4885.359217,-2516.700203,-78754.617194
106.555780,3997.112087,-2664.741391,-79214.274493
106.558335,3849.070898,-2812.782580,-79214.274493
106.560891,7254.018232,-296.082377,-79980.369991
106.563446,-7550.100608,-296.082377,-78294.959896
106.566002,-11695.253884,-1480.411884,-77988.521696
106.568558,-9030.512492,-4293.194464,-78907.836294
106.571113,-592.164754,-740.205942,-78294.959896
106.573669,2072.576638,-2072.576638,-79827.150892
106.576224,1036.288319,-1480.411884,-79061.055394
106.578780,-5477.523971,-1184.329507,-77375.645298
106.581335,-9474.636058,-2960.823768,-79673.931792
106.583891,-14063.912898,-1184.329507,-79214.274493
106.586447,-592.164754,-888.247130,-78907.836294
106.589002,1628.453072,-2960.823768,-79214.274493
106.591558,6365.771101,-1924.535449,-77528.864398
106.594113,-8882.471304,-1924.535449,-80746.465489
106.596669,-1332.370696,-1628.453072,-78907.836294
106.599224,-4293.194464,-1332.370696,-78294.959896
106.601780,-3997.112087,-3108.864956,-78294.959896
106.604336,5921.647536,-1184.329507,-76915.987999
106.606891,-5329.482782,-2664.741391,-81818.999186
106.609447,-3849.070898,-2072.576638,-77375.645298
106.612002,-10510.924376,-3997.112087,-79061.055394
106.614558,-11103.089130,-1924.535449,-78907.836294
106.617113,-5477.523971,-1776.494261,-77835.302597
106.619669,-4885.359217,-1628.453072,-78907.836294
106.622225,2812.782580,-2812.782580,-79673.931792
106.624780,-5773.606348,-2072.576638,-79673.931792
106.627336,-5773.606348,-1776.494261,-78907.836294
106.629891,-6513.812290,-1480.411884,-78448.178995
106.632447,-2072.576638,-1776.494261,-78294.959896
106.635002,-3404.947333,-2072.576638,-79061.055394
106.637558,2960.823768,-3404.947333,-79214.274493
106.640114,5921.647536,444.123565,-78141.740796
106.642669,8734.430116,-3108.864956,-80593.246390
106.645225,4589.276840,-740.205942,-78907.836294
106.647780,2516.700203,-3997.112087,-78294.959896
106.650336,-1036.288319,-888.247130,-79367.493593
106.652894,296.082377,-3552.988522,-79061.055394
106.655458,3404.947333,-2220.617826,-77988.521696
106.658022,10362.883188,-2812.782580,-79214.274493
106.660587,9178.553681,-740.205942,-79673.931792
106.663151,4589.276840,-3108.864956,-79673.931792
106.665716,-7994.224174,444.123565,-80133.589091
106.668280,-4737.318029,-3108.864956,-76609.549800
106.670844,8142.265362,-1924.535449,-77988.521696
106.673409,0.000000,-2812.782580,-80286.808190
106.675973,5625.565159,-1332.370696,-77069.207099
106.678537,-148.041188,-1924.535449,-78448.178995
106.681102,-1924.535449,-888.247130,-78754.617194
106.683666,-444.123565,-1036.288319,-80593.246390
106.686231,8438.347739,-2960.823768,-79061.055394
106.688795,11843.295072,-1332.370696,-77835.302597
106.691359,6365.771101,-2812.782580,-80593.246390
106.693924,2960.823768,-1628.453072,-80286.808190
106.696488,-2368.659014,-1332.370696,-79827.150892
106.699052,2368.659014,-1628.453072,-79673.931792
106.701617,3701.029710,-1480.411884,-78448.178995
106.704181,5625.565159,-3701.029710,-77835.302597
106.706745,6217.729913,-1776.494261,-79214.274493
106.709310,5773.606348,-2072.576638,-80133.589091
106.711874,-11547.212695,444.123565,-79061.055394
106.714439,-12139.377449,-3256.906145,-78601.398095
106.717003,-8734.430116,-2072.576638,-79673.931792
106.719567,-592.164754,-888.247130,-78601.398095
106.722132,4293.194464,-2516.700203,-79827.150892
106.724696,296.082377,-1332.370696,-79367.493593
106.727260,-7105.977043,-1036.288319,-78448.178995
106.729825,-11251.130318,-1332.370696,-78141.740796
106.732389,-14804.118840,-3701.029710,-79367.493593
106.734954,1036.288319,-2072.576638,-78448.178995
106.737518,8882.471304,-1480.411884,-79367.493593
106.740082,148.041188,-1184.329507,-80899.684589
106.742647,-10066.800811,-2368.659014,-79520.712692
106.745211,-1036.288319,-2960.823768,-76149.892501
106.747775,-3849.070898,-740.205942,-78754.617194
106.750340,-8142.265362,-2072.576638,-77682.083497
106.752904,13175.665768,-2960.823768,-79214.274493
106.755476,-7402.059420,-3701.029710,-79214.274493
106.758047,-2368.659014,-444.123565,-78141.740796
106.760619,-14656.077652,-1184.329507,-81972.218286
106.763191,-9030.512492,-1776.494261,-78907.836294
106.765762,-5921.647536,-2812.782580,-77988.521696
106.768334,1776.494261,-3849.070898,-77835.302597
106.770905,-1924.535449,-296.082377,-78294.959896
106.773477,-4589.276840,-3108.864956,-80286.808190
106.776049,-7402.059420,-1776.494261,-77222.426198
106.778620,-4589.276840,-3108.864956,-79367.493593
106.781192,-4589.276840,-2664.741391,-80593.246390
106.783764,-1628.453072,-740.205942,-79061.055394
106.786335,9918.759623,-2812.782580,-78448.178995
106.788907,10362.883188,-2664.741391,-78907.836294
106.791479,8142.265362,-1480.411884,-79214.274493
106.794050,296.082377,-1036.288319,-79520.712692
106.796622,-2368.659014,-1480.411884,-78754.617194
106.799193,-296.082377,-2664.741391,-77682.083497
106.801765,4737.318029,-2072.576638,-80593.246390
106.804337,12583.501014,-592.164754,-79980.369991
106.806908,9918.759623,-2220.617826,-80133.589091
106.809480,6217.729913,-3849.070898,-79061.055394
106.812052,-6513.812290,-740.205942,-79367.493593
106.814623,-6661.853478,-2516.700203,-79367.493593
106.817195,5921.647536,-2812.782580,-77069.207099
106.819766,296.082377,-4737.318029,-80899.684589
106.822338,1480.411884,-1332.370696,-78601.398095
106.824910,-888.247130,-4145.153275,-79827.150892
106.827481,-3108.864956,-444.123565,-76762.768900
106.830053,5477.523971,-2664.741391,-77528.864398
106.832625,8438.347739,-1184.329507,-79061.055394
106.835196,12879.583391,-1628.453072,-80899.684589
106.837773,8734.430116,-2960.823768,-81052.903688
106.840349,2664.741391,-2664.741391,-79980.369991
106.842925,-3849.070898,-444.123565,-78907.836294
106.845501,2072.576638,-3256.906145,-79827.150892
106.848078,2072.576638,-740.205942,-79061.055394
106.850654,5625.565159,-1924.535449,-77988.521696
106.853230,6809.894666,-3701.029710,-78448.178995
106.855806,6661.853478,-1480.411884,-79367.493593
106.858383,-13767.830521,296.082377,-79214.274493
106.860959,-13471.748144,-2072.576638,-78294.959896
106.863535,-7846.182985,-2664.741391,-78294.959896
106.866111,4441.235652,-1332.370696,-78294.959896
106.868688,2664.741391,-2368.659014,-80286.808190
106.871264,888.247130,-1184.329507,-79214.274493
106.873840,-7402.059420,-1924.535449,-78907.836294
106.876416,-14063.912898,-888.247130,-77988.521696
106.878993,-10955.047942,-3997.112087,-79367.493593
106.881569,3108.864956,-1184.329507,-79827.150892
106.884145,1036.288319,-740.205942,-80133.589091
106.886721,1628.453072,-2812.782580,-79367.493593
106.889298,-6217.729913,-3108.864956,-78754.617194
106.891874,-6365.771101,-1184.329507,-78448.178995
106.894450,-1628.453072,-1332.370696,-77988.521696
106.897026,-1332.370696,-1924.535449,-78754.617194
106.899603,3552.988522,-2220.617826,-77988.521696
106.902179,-4145.153275,-2368.659014,-77682.083497
106.904755,-13915.871710,-444.123565,-79061.055394
106.907331,-13027.624579,-1480.411884,-78907.836294
106.909908,-8586.388927,-2220.617826,-79827.150892
106.912484,-148.041188,-1776.494261,-79980.369991
106.915060,-148.041188,-740.205942,-78754.617194
106.917636,-2664.741391,-2220.617826,-78448.178995
106.920213,-6217.729913,-3256.906145,-79061.055394
106.922789,-5329.482782,-1036.288319,-78294.959896
106.925365,-6513.812290,-3997.112087,-77988.521696
106.927941,-3108.864956,148.041188,-79367.493593
106.930518,9918.759623,-3256.906145,-79367.493593
106.933094,12583.501014,-1628.453072,-79367.493593
106.935670,9474.636058,-1184.329507,-77682.083497
106.938246,-444.123565,-1036.288319,-78907.836294
106.940826,-5477.523971,-1924.535449,-78754.617194
106.943406,-1332.370696,-1184.329507,-76762.768900
106.945986,5329.482782,-3256.906145,-79827.150892
106.948565,10658.965565,-148.041188,-79214.274493
106.951145,10510.924376,-2220.617826,-78601.398095
106.953725,6513.812290,-2220.617826,-78601.398095
106.956305,-2960.823768,-2812.782580,-80593.246390
106.958885,-6069.688724,-1332.370696,-79980.369991
106.961464,4589.276840,-2072.576638,-78754.617194
106.964044,2368.659014,-3552.988522,-79980.369991
106.966624,-1036.288319,-2960.823768,-78141.740796
106.969204,8290.306550,-3108.864956,-79520.712692
106.971783,-4885.359217,-740.205942,-79827.150892
106.974363,4145.153275,-1776.494261,-78601.398095
106.976943,5773.606348,-2220.617826,-77682.083497
106.979523,13323.706956,-1924.535449,-79367.493593
106.982103,6661.853478,-888.247130,-78907.836294
106.984682,4885.359217,-3404.947333,-79520.712692
106.987262,-2368.659014,296.082377,-77835.302597
106.989842,1480.411884,-3849.070898,-79214.274493
106.992422,2516.700203,-296.082377,-79214.274493
106.995001,7254.018232,-4293.194464,-79520.712692
106.997581,10214.842000,-1628.453072,-79520.712692
107.000161,-2664.741391,-740.205942,-78601.398095
107.002741,-14063.912898,-2072.576638,-79367.493593
107.005320,-14804.118840,-1480.411884,-77835.302597
107.007900,-3404.947333,-2220.617826,-77835.302597
107.010480,2368.659014,-3404.947333,-78907.836294
107.013060,5181.441594,-1924.535449,-79061.055394
107.015640,-3256.906145,296.082377,-79673.931792
107.018219,-10807.006753,-1480.411884,-78294.959896
107.020799,-15544.324782,-2368.659014,-77835.302597
107.023379,-4145.153275,-3552.988522,-79673.931792
107.025959,148.041188,-592.164754,-80286.808190
107.028538,2072.576638,-740.205942,-79520.712692
107.031118,-5477.523971,-2368.659014,-79520.712692
107.033698,-3701.029710,-1184.329507,-79214.274493
107.036278,-4293.194464,-1776.494261,-80133.589091
107.038858,-1924.535449,-888.247130,-77988.521696
107.041437,148.041188,-740.205942,-77835.302597
107.043972,-4441.235652,-2812.782580,-77835.302597
107.046508,-8142.265362,-1480.411884,-77835.302597
107.049043,-15248.242405,-1480.411884,-79061.055394
107.051578,-11103.089130,-3849.070898,-78754.617194
107.054113,-740.205942,-592.164754,-77069.207099
107.056648,-296.082377,-1776.494261,-79214.274493
107.059183,592.164754,-148.041188,-78754.617194
107.061718,-5921.647536,-2812.782580,-79673.931792
107.064254,-4885.359217,-2220.617826,-78601.398095
107.066789,-5921.647536,-1776.494261,-77835.302597
107.069324,-5477.523971,-148.041188,-78907.836294
107.071859,10362.883188,-2960.823768,-78601.398095
107.074394,13471.748144,-2960.823768,-78907.836294
107.076929,13175.665768,-2072.576638,-78448.178995
107.079464,592.164754,-1332.370696,-80133.589091
107.082000,-6661.853478,-1924.535449,-79061.055394
107.084535,-3997.112087,-2812.782580,-78141.740796
107.087070,3108.864956,-2220.617826,-77682.083497
107.089605,11843.295072,-1776.494261,-78754.617194
107.092140,10510.924376,-1924.535449,-79673.931792
107.094675,1184.329507,-740.205942,-77835.302597
107.097210,-2368.659014,-4145.153275,-77835.302597
107.099746,-1184.329507,-2960.823768,-79367.493593
107.102281,2812.782580,740.205942,-79980.369991
107.104816,5033.400406,-4441.235652,-80440.027290
107.107351,-1332.370696,-2072.576638,-77528.864398
107.109886,888.247130,-1184.329507,-80593.246390
107.112421,1776.494261,-1628.453072,-81665.780087
107.114956,6513.812290,296.082377,-79367.493593
107.117491,11399.171507,-1924.535449,-80286.808190
107.120027,12583.501014,-3552.988522,-79673.931792
107.122562,6217.729913,-1332.370696,-76915.987999
107.125097,1480.411884,-1628.453072,-78907.836294
107.127632,-2368.659014,-1628.453072,-79673.931792
107.130167,-444.123565,-1184.329507,-78294.959896
107.132702,4885.359217,-4589.276840,-77835.302597
107.135237,10362.883188,-1184.329507,-80286.808190
107.137773,2220.617826,-2220.617826,-79214.274493
107.140308,-12583.501014,-592.164754,-78601.398095
107.142843,-15396.283594,-2812.782580,-79214.274493
107.145390,-10955.047942,-1480.411884,-78754.617194
107.147938,888.247130,-1628.453072,-78601.398095
107.150485,3849.070898,-2960.823768,-79061.055394
107.153033,740.205942,-1036.288319,-78448.178995
107.155581,-6809.894666,-2072.576638,-78754.617194
107.158128,-17616.901420,-1628.453072,-80286.808190
107.160676,-8882.471304,-1628.453072,-78294.959896
107.163223,2960.823768,-1628.453072,-78601.398095
107.165771,5773.606348,-1924.535449,-79061.055394
107.168318,-4441.235652,-296.082377,-78448.178995
107.170866,-2664.741391,-3849.070898,-79827.150892
107.173413,-3108.864956,-1332.370696,-79520.712692
107.175961,-6661.853478,-444.123565,-79827.150892
107.178508,4737.318029,-888.247130,-78448.178995
107.181056,-444.123565,-888.247130,-80899.684589
107.183603,-8586.388927,-1480.411884,-77528.864398
107.186151,-14211.954086,-3108.864956,-80593.246390
107.188698,-13323.706956,-2220.617826,-79980.369991
107.191246,-4293.194464,-444.123565,-77528.864398
107.193794,-2368.659014,-1776.494261,-78141.740796
107.196341,2960.823768,-2072.576638,-78294.959896
107.198889,-3256.906145,-2960.823768,-79827.150892
107.201436,-4737.318029,-1036.288319,-79827.150892
107.203984,-8586.388927,-2516.700203,-79673.931792
107.206531,-6513.812290,-888.247130,-77069.207099
107.209079,8734.430116,-1628.453072,-78754.617194
107.211626,14804.118840,-1628.453072,-79367.493593
107.214174,13471.748144,-592.164754,-77375.645298
107.216721,-296.082377,-3256.906145,-78754.617194
107.219269,-5625.565159,-1924.535449,-79673.931792
107.221816,-4145.153275,-740.205942,-78754.617194
107.224364,5181.441594,-2220.617826,-79673.931792
107.226912,11103.089130,-444.123565,-78601.398095
107.229459,8586.388927,-3552.988522,-79520.712692
107.232007,9030.512492,-1924.535449,-77069.207099
107.234554,444.123565,-1628.453072,-77528.864398
107.237102,740.205942,-3997.112087,-78448.178995
107.239649,1184.329507,-740.205942,-77069.207099
107.242197,6365.771101,-1776.494261,-79673.931792
107.244744,-2072.576638,-1776.494261,-81052.903688
107.247257,888.247130,-2220.617826,-77835.302597
107.249769,4885.359217,-3552.988522,-78141.740796
107.252281,8142.265362,-592.164754,-78141.740796
107.254794,12287.418637,-1036.288319,-79520.712692
107.257306,9178.553681,-2072.576638,-77069.207099
107.259818,6661.853478,-2960.823768,-77988.521696
107.262331,-4441.235652,-1184.329507,-80133.589091
107.264843,-1628.453072,-2220.617826,-79827.150892
107.267355,-444.123565,-1628.453072,-79214.274493
107.269868,8734.430116,-4441.235652,-77375.645298
107.272380,10362.883188,-2664.741391,-78601.398095
107.274892,-4145.153275,148.041188,-79367.493593
107.277405,-14359.995275,-1776.494261,-78448.178995
107.279917,-13619.789333,-4589.276840,-79367.493593
107.282429,-4737.318029,-1332.370696,-78294.959896
107.284942,2812.782580,-592.164754,-79673.931792
107.287454,5477.523971,-1776.494261,-79214.274493
107.289966,-2072.576638,-1332.370696,-78907.836294
107.292479,-11695.253884,-2368.659014,-77682.083497
107.294991,-15396.283594,-2960.823768,-80593.246390
107.297503,-8438.347739,-1184.329507,-80593.246390
107.300016,4589.276840,-2516.700203,-77528.864398
107.302528,-2516.700203,-2664.741391,-78294.959896
107.305040,0.000000,-3849.070898,-78907.836294
107.307553,-3404.947333,-888.247130,-79520.712692
107.310065,-4885.359217,-1924.535449,-79980.369991
107.312577,1628.453072,-1036.288319,-78601.398095
107.315090,-740.205942,-3701.029710,-78294.959896
107.317602,-6365.771101,-592.164754,-77375.645298
107.320114,-11695.253884,-1924.535449,-78448.178995
107.322626,-15248.242405,-3404.947333,-79980.369991
107.325139,-7994.224174,-1332.370696,-78448.178995
107.327651,-3404.947333,-1628.453072,-80899.684589
107.330163,4589.276840,-444.123565,-79061.055394
107.332676,-2516.700203,-2368.659014,-78601.398095
107.335188,-2516.700203,-3552.988522,-79673.931792
107.337700,-8734.430116,-1332.370696,-79520.712692
107.340213,-4293.194464,-2220.617826,-78754.617194
107.342725,7698.141797,-2072.576638,-78754.617194
107.345237,13027.624579,-3256.906145,-79214.274493
107.347767,14063.912898,-888.247130,-77682.083497
107.350298,3256.906145,-2664.741391,-79367.493593
107.352828,-6217.729913,-1924.535449,-79827.150892
107.355358,-5773.606348,-2072.576638,-77528.864398
107.357888,4737.318029,-148.041188,-77835.302597
107.360418,13323.706956,-1332.370696,-78601.398095
107.362948,12139.377449,-1480.411884,-78907.836294
107.365478,6661.853478,-2812.782580,-79520.712692
107.368008,-3404.947333,-1924.535449,-79980.369991
107.370538,888.247130,-2516.700203,-80133.589091
107.373068,-2960.823768,-1184.329507,-78448.178995
107.375598,4441.235652,-2072.576638,-77988.521696
107.378128,9918.759623,-3849.070898,-78754.617194
107.380658,-296.082377,-2960.823768,-79061.055394
107.383188,5921.647536,-888.247130,-79827.150892
107.385718,4145.153275,-1332.370696,-80746.465489
107.388248,14804.118840,-2220.617826,-79061.055394
107.390778,5773.606348,-1924.535449,-77835.302597
107.393308,7550.100608,-2072.576638,-76915.987999
107.395838,-6661.853478,-1184.329507,-78907.836294
107.398368,-2960.823768,-888.247130,-78601.398095
107.400898,3997.112087,-3701.029710,-77835.302597
107.403428,11843.295072,-1776.494261,-79214.274493
107.405958,2812.782580,1036.288319,-79214.274493
107.408488,-12435.459826,-1776.494261,-81206.122788
107.411018,-12287.418637,-2664.741391,-77375.645298
107.413548,-12139.377449,-2664.741391,-79061.055394
107.416078,-2368.659014,-2220.617826,-79520.712692
107.418608,2368.659014,-1332.370696,-79061.055394
107.421138,2220.617826,-2516.700203,-77682.083497
107.423668,-6069.688724,-1480.411884,-77375.645298
107.426198,-14211.954086,-1332.370696,-81052.903688
107.428728,-9178.553681,-1628.453072,-79061.055394
107.431258,-2664.741391,-1628.453072,-79214.274493
107.433789,888.247130,-1776.494261,-78448.178995
107.436319,5921.647536,-1924.535449,-79214.274493
107.438849,-10362.883188,-3256.906145,-79827.150892
107.441379,-9622.677246,2220.617826,-76762.768900
107.443909,7402.059420,-5625.565159,-79520.712692
107.446439,-6217.729913,-2072.576638,-80133.589091
107.448983,-888.247130,444.123565,-79367.493593
107.451528,-12731.542202,-2220.617826,-81206.122788
107.454073,-10066.800811,-2072.576638,-76762.768900
107.456618,-11991.336260,-3701.029710,-80286.808190
107.459162,-3552.988522,-888.247130,-77682.083497
107.461707,-1184.329507,-888.247130,-78294.959896
107.464252,2960.823768,-3108.864956,-77528.864398
107.466797,-2960.823768,-1776.494261,-77682.083497
107.469341,-6957.935855,-2664.741391,-79827.150892
107.471886,-8882.471304,-296.082377,-79214.274493
107.474431,6513.812290,-1036.288319,-79520.712692
107.476976,12139.377449,-2516.700203,-77682.083497
107.479521,15248.242405,-1776.494261,-79061.055394
107.482065,4145.153275,-3404.947333,-79214.274493
107.484610,-4145.153275,-592.164754,-77988.521696
107.487155,-3404.947333,-3701.029710,-79520.712692
107.489700,888.247130,-2664.741391,-80133.589091
107.492244,11399.171507,888.247130,-79827.150892
107.494789,9030.512492,-2368.659014,-77988.521696
107.497334,10658.965565,-5181.441594,-76456.330700
107.499879,-740.205942,-1480.411884,-78141.740796
107.502423,-3108.864956,-2664.741391,-77835.302597
107.504968,1628.453072,-1184.329507,-78448.178995
107.507513,2220.617826,-2812.782580,-77988.521696
107.510058,6957.935855,-2664.741391,-79214.274493
107.512602,296.082377,-2812.782580,-79061.055394
107.515147,6957.935855,-1184.329507,-79673.931792
107.517692,7254.018232,-2368.659014,-80440.027290
107.520237,13767.830521,-1776.494261,-78294.959896
107.522781,8290.306550,148.041188,-77682.083497
107.525326,1480.411884,-1776.494261,-78448.178995
107.527871,-3108.864956,740.205942,-79520.712692
107.530416,-1924.535449,-5329.482782,-79673.931792
107.532960,7105.977043,-2072.576638,-78601.398095
107.535505,10510.924376,-1924.535449,-78141.740796
107.538050,-6809.894666,-148.041188,-78601.398095
107.540595,-12139.377449,-3552.988522,-78294.959896
107.543140,-11399.171507,-3701.029710,-78448.178995
107.545684,-4589.276840,-1480.411884,-78601.398095
107.548229,2516.700203,-1628.453072,-79673.931792
107.550784,2960.823768,-1776.494261,-78907.836294
107.553340,-740.205942,-1184.329507,-77069.207099
107.555895,-12879.583391,-1184.329507,-79367.493593
107.558451,-10955.047942,-2220.617826,-80440.027290
107.561006,-13323.706956,-592.164754,-79520.712692
107.563561,-740.205942,-1036.288319,-79061.055394
107.566117,6069.688724,-1924.535449,-78601.398095
107.568672,-7254.018232,-2516.700203,-80746.465489
107.571227,-2516.700203,-1480.411884,-77682.083497
107.573783,-7254.018232,-2960.823768,-79061.055394
107.576338,-4293.194464,-2072.576638,-77835.302597
107.578893,-3108.864956,-1480.411884,-78448.178995
107.581449,-8734.430116,-2664.741391,-81359.341888
107.584004,-11399.171507,-592.164754,-78141.740796
107.586560,-10955.047942,-1628.453072,-79061.055394
107.589115,-6513.812290,-2516.700203,-78601.398095
107.591670,-592.164754,0.000000,-79367.493593
107.594226,740.205942,-2220.617826,-79367.493593
107.596781,-148.041188,-888.247130,-77988.521696
107.599336,-6809.894666,-3849.070898,-79061.055394
107.601892,-5921.647536,-148.041188,-78601.398095
107.604447,5033.400406,-2664.741391,-79214.274493
107.607002,13767.830521,-2664.741391,-78754.617194
107.609558,11695.253884,-1332.370696,-79520.712692
107.612113,3404.947333,-2664.741391,-79827.150892
107.614669,-3404.947333,-148.041188,-78907.836294
107.617224,-3552.988522,-4737.318029,-78601.398095
107.619779,2220.617826,-2072.576638,-78754.617194
107.622335,11399.171507,-148.041188,-78601.398095
107.624890,17912.983796,-1036.288319,-79827.150892
107.627445,1776.494261,-3849.070898,-77069.207099
107.630001,2072.576638,-1924.535449,-78294.959896
107.632556,-4293.194464,-1924.535449,-79980.369991
107.635111,1184.329507,740.205942,-78907.836294
107.637667,3256.906145,-3552.988522,-79980.369991
107.640222,2516.700203,-2072.576638,-79061.055394
107.642778,740.205942,-2812.782580,-77988.521696
107.645333,7846.182985,-2368.659014,-78601.398095
107.647888,9918.759623,-1184.329507,-78601.398095
107.650444,8142.265362,-3552.988522,-77222.426198
107.653005,8438.347739,-592.164754,-78294.959896
107.655569,-592.164754,-1924.535449,-78601.398095
107.658134,-2960.823768,-1036.288319,-79367.493593
107.660698,-296.082377,-3997.112087,-79061.055394
107.663262,7698.141797,-1332.370696,-78294.959896
107.665827,6661.853478,-740.205942,-78601.398095
107.668391,-11103.089130,-1776.494261,-79980.369991
107.670955,-13323.706956,-1184.329507,-77528.864398
107.673520,-9622.677246,-3552.988522,-78294.959896
107.676084,-888.247130,-888.247130,-79061.055394
107.678648,888.247130,-1628.453072,-79520.712692
107.681212,1184.329507,-1924.535449,-79520.712692
107.683777,-5921.647536,-592.164754,-78601.398095
107.686341,-10807.006753,-2220.617826,-78448.178995
107.688905,-9474.636058,-3404.947333,-79520.712692
107.691470,-1036.288319,-1332.370696,-78601.398095
107.694034,3552.988522,-2664.741391,-79980.369991
107.696598,-148.041188,-1776.494261,-79673.931792
107.699163,-5773.606348,-1036.288319,-78141.740796
107.701727,-2368.659014,-2368.659014,-80286.808190
107.704291,-7846.182985,-1628.453072,-76149.892501
107.706856,1332.370696,-2516.700203,-76915.987999
107.709420,-8734.430116,-3404.947333,-79214.274493
107.711984,-11251.130318,-740.205942,-77835.302597
107.714549,-10807.006753,-1332.370696,-78448.178995
107.717113,-9178.553681,-2812.782580,-79367.493593
107.719677,-2812.782580,-1628.453072,-78601.398095
107.722242,0.000000,-740.205942,-79367.493593
107.724806,888.247130,-2368.659014,-78907.836294
107.727370,-4441.235652,-3552.988522,-78294.959896
107.729935,-5921.647536,-1036.288319,-78601.398095
107.732499,4589.276840,-1036.288319,-78601.398095
107.735063,11103.089130,-3552.988522,-79367.493593
107.737628,12879.583391,-1184.329507,-78448.178995
107.740192,6957.935855,-2368.659014,-79673.931792
107.742756,-2812.782580,-2072.576638,-79673.931792
107.745321,-5329.482782,-1776.494261,-79061.055394
107.747885,-592.164754,-3108.864956,-78601.398095
107.750449,8142.265362,-444.123565,-77528.864398
107.753013,6661.853478,-2960.823768,-77682.083497
107.755584,10214.842000,-3108.864956,-79673.931792
107.758154,-592.164754,-740.205942,-79061.055394
107.760725,592.164754,-4145.153275,-81972.218286
107.763295,-10658.965565,444.123565,-78754.617194
107.765865,12879.583391,-1924.535449,-81359.341888
107.768436,-5477.523971,-3108.864956,-78141.740796
107.771006,6661.853478,-1480.411884,-77069.207099
107.773576,4293.194464,-3552.988522,-78907.836294
107.776147,12731.542202,-3552.988522,-77069.207099
107.778717,4885.359217,888.247130,-77988.521696
107.781287,9918.759623,-2812.782580,-80593.246390
107.783858,-1036.288319,-740.205942,-78907.836294
107.786428,-444.123565,-2220.617826,-80593.246390
107.788998,1036.288319,-1628.453072,-79367.493593
107.791569,7846.182985,296.082377,-79520.712692
107.794139,1036.288319,-1036.288319,-78294.959896
107.796709,-13471.748144,-3108.864956,-78448.178995
107.799280,-9770.718434,-740.205942,-77222.426198
107.801850,-10214.842000,-2072.576638,-79367.493593
107.804420,444.123565,-2072.576638,-79367.493593
107.806991,296.082377,-3849.070898,-78907.836294
107.809561,888.247130,-2072.576638,-79061.055394
107.812131,-5921.647536,740.205942,-78294.959896
107.814702,-12879.583391,-1332.370696,-79214.274493
107.817272,-1480.411884,-2812.782580,-79061.055394
107.819842,-592.164754,-1924.535449,-80746.465489
107.822413,-3552.988522,888.247130,-78141.740796
107.824983,2516.700203,-2072.576638,-78601.398095
107.827553,-4589.276840,-3701.029710,-78601.398095
107.830124,2220.617826,-2220.617826,-77682.083497
107.832694,-9178.553681,-2072.576638,-81359.341888
107.835264,-6365.771101,0.000000,-78754.617194
107.837835,-8290.306550,-4885.359217,-79827.150892
107.840405,-11991.336260,-740.205942,-80746.465489
107.842976,-7254.018232,-148.041188,-78448.178995
107.845546,-8438.347739,-2368.659014,-78907.836294
107.848116,-296.082377,-2072.576638,-76609.549800
107.850687,-1628.453072,-2220.617826,-79061.055394
107.853257,1332.370696,-2072.576638,-80593.246390
107.855827,-7402.059420,-1480.411884,-78448.178995
107.858403,-1184.329507,-2220.617826,-80133.589091
107.860978,7846.182985,-740.205942,-79367.493593
107.863553,12287.418637,-3552.988522,-78907.836294
107.866129,10510.924376,296.082377,-77682.083497
107.868704,1480.411884,-4885.359217,-79827.150892
107.871279,-2664.741391,0.000000,-78448.178995
107.873854,-3701.029710,-3404.947333,-79827.150892
107.876430,6957.935855,-888.247130,-79214.274493
107.879005,13175.665768,-1036.288319,-78448.178995
107.881580,10214.842000,-2812.782580,-80440.027290
107.884156,-3108.864956,-2368.659014,-79520.712692
107.886731,148.041188,-2960.823768,-78601.398095
107.889306,-1332.370696,-2220.617826,-78294.959896
107.891882,4441.235652,-148.041188,-77682.083497
107.894457,-1184.329507,0.000000,-78294.959896
107.897032,6661.853478,-2220.617826,-80593.246390
107.899608,5625.565159,-444.123565,-78601.398095
107.902183,8882.471304,-3552.988522,-80899.684589
107.904758,7402.059420,-592.164754,-79367.493593
107.907334,9622.677246,-1628.453072,-77835.302597
107.909909,0.000000,148.041188,-78601.398095
107.912484,-444.123565,-2664.741391,-78907.836294
107.915060,-2368.659014,-4293.194464,-80440.027290
107.917635,11103.089130,-1036.288319,-78754.617194
107.920210,-888.247130,-888.247130,-79214.274493
107.922786,-11399.171507,-1776.494261,-78907.836294
107.925361,-13323.706956,-2368.659014,-77682.083497
107.927936,-8882.471304,-2812.782580,-77988.521696
107.930512,0.000000,-1184.329507,-79520.712692
107.933087,740.205942,-1628.453072,-79367.493593
107.935662,-592.164754,-2072.576638,-79061.055394
107.938238,-8290.306550,-444.123565,-78294.959896
107.940813,-10658.965565,-592.164754,-78907.836294
107.943388,-9178.553681,-1184.329507,-79980.369991
107.945963,-2368.659014,-2368.659014,-79061.055394
107.948539,3552.988522,-2368.659014,-77222.426198
107.951114,-2960.823768,-3108.864956,-79061.055394
107.953689,-1036.288319,-740.205942,-78754.617194
107.956265,-2072.576638,-296.082377,-78448.178995
107.958840,-3997.112087,-3404.947333,-79673.931792
107.961420,-7550.100608,-2664.741391,-77222.426198
107.963999,-10214.842000,-3256.906145,-79980.369991
107.966579,-8438.347739,-592.164754,-79520.712692
107.969158,-10807.006753,-1628.453072,-79827.150892
107.971737,-5329.482782,-4293.194464,-79827.150892
107.974317,0.000000,-296.082377,-77222.426198
107.976896,0.000000,-2664.741391,-79214.274493
107.979476,-4145.153275,-1332.370696,-77988.521696
107.982055,-4737.318029,-2516.700203,-79980.369991
107.984635,5329.482782,-148.041188,-78754.617194
107.987214,11103.089130,-2368.659014,-79367.493593
107.989794,11843.295072,-1776.494261,-78907.836294
107.992373,5773.606348,-1628.453072,-78294.959896
107.994953,-1628.453072,-3256.906145,-79980.369991
107.997532,-4145.153275,-1184.329507,-78601.398095
108.000112,-444.123565,-2368.659014,-79214.274493
108.002691,11251.130318,-1924.535449,-78907.836294
108.005271,8142.265362,-1036.288319,-79673.931792
108.007850,1924.535449,-3552.988522,-78907.836294
108.010430,2368.659014,-3108.864956,-79980.369991
108.013009,-6217.729913,-2220.617826,-78294.959896
108.015589,1924.535449,-3404.947333,-78448.178995
108.018168,3404.947333,-888.247130,-79520.712692
108.020748,2960.823768,-1628.453072,-80899.684589
108.023327,10214.842000,-2664.741391,-78907.836294
108.025907,8290.306550,-1480.411884,-79673.931792
108.028486,11991.336260,-3256.906145,-80286.808190
108.031066,4145.153275,1332.370696,-79520.712692
108.033645,3404.947333,-4145.153275,-78907.836294
108.036225,-4885.359217,-888.247130,-77988.521696
108.038804,4145.153275,-4737.318029,-79520.712692
108.041384,4293.194464,-1036.288319,-80746.465489
108.043963,3849.070898,-1184.329507,-78294.959896
108.046543,-13767.830521,-1332.370696,-78907.836294
108.049122,-12287.418637,-3701.029710,-78907.836294
108.051701,-11103.089130,-1480.411884,-78601.398095
108.054281,1036.288319,-1628.453072,-79214.274493
108.056860,444.123565,-296.082377,-77375.645298
108.059440,888.247130,-2664.741391,-79214.274493
108.062019,-6217.729913,-592.164754,-78907.836294
108.064601,-12287.418637,-444.123565,-79061.055394
108.067183,-6217.729913,-1628.453072,-79980.369991
108.069765,-5181.441594,-1924.535449,-80593.246390
108.072347,4145.153275,-2220.617826,-77069.207099
108.074928,-5329.482782,-2220.617826,-77682.083497
108.077510,-2220.617826,-3108.864956,-77835.302597
108.080092,-2516.700203,-3552.988522,-79520.712692
108.082674,-8142.265362,-148.041188,-79367.493593
108.085256,-6661.853478,-2220.617826,-78601.398095
108.087837,-12287.418637,-2220.617826,-80746.465489
108.090419,-8290.306550,-1184.329507,-79673.931792
108.093001,-12731.542202,-888.247130,-79214.274493
108.095583,-2072.576638,-3256.906145,-77835.302597
108.098165,-4441.235652,-444.123565,-76762.768900
108.100747,1184.329507,-3552.988522,-78141.740796
108.103328,-4737.318029,-1036.288319,-78907.836294
108.105910,-2812.782580,-3256.906145,-79673.931792
108.108492,4441.235652,592.164754,-79520.712692
108.111074,11843.295072,-3256.906145,-80746.465489
108.113656,10510.924376,-888.247130,-77375.645298
108.116237,5033.400406,-3997.112087,-79061.055394
108.118819,-1184.329507,-444.123565,-78754.617194
108.121401,-2812.782580,-1776.494261,-78448.178995
108.123983,888.247130,-3256.906145,-79827.150892
108.126565,7846.182985,-1184.329507,-77682.083497
108.129146,11251.130318,-2368.659014,-78754.617194
108.131728,3552.988522,-2516.700203,-79980.369991
108.134310,-5033.400406,-1628.453072,-79214.274493
108.136892,1776.494261,-888.247130,-79061.055394
108.139474,-4145.153275,-1036.288319,-80593.246390
108.142055,7698.141797,-3552.988522,-78294.959896
108.144637,7254.018232,-592.164754,-79673.931792
108.147219,11399.171507,-2812.782580,-78294.959896
108.149801,9770.718434,-1776.494261,-78601.398095
108.152383,7994.224174,-1924.535449,-79367.493593
108.154965,2368.659014,0.000000,-80593.246390
108.157546,2368.659014,-2960.823768,-78907.836294
108.160128,-1184.329507,-4145.153275,-79367.493593
108.162710,6809.894666,-3256.906145,-79061.055394
108.165292,5773.606348,-444.123565,-79673.931792
108.167875,-5181.441594,888.247130,-78448.178995
108.170459,-14211.954086,-4293.194464,-78448.178995
108.173042,-13175.665768,-592.164754,-77682.083497
108.175626,-6365.771101,-3256.906145,-79827.150892
108.178209,1776.494261,-592.164754,-78754.617194
108.180792,592.164754,-4441.235652,-79061.055394
108.183376,-148.041188,-148.041188,-78907.836294
108.185959,-8142.265362,-1036.288319,-78448.178995
108.188543,-10066.800811,148.041188,-79061.055394
108.191126,-2516.700203,-4885.359217,-78141.740796
108.193710,1036.288319,-2072.576638,-77682.083497
108.196293,3552.988522,-2220.617826,-79214.274493
108.198877,-7550.100608,-2220.617826,-81052.903688
108.201460,3997.112087,-2368.659014,-79367.493593
108.204043,-12435.459826,-2516.700203,-81512.560987
108.206627,-5773.606348,-1184.329507,-76303.111601
108.209210,-13175.665768,-2812.782580,-79980.369991
108.211794,-10658.965565,-3404.947333,-79214.274493
108.214377,-9918.759623,-1776.494261,-76303.111601
108.216961,-6809.894666,-2220.617826,-79367.493593
108.219544,-1184.329507,-296.082377,-77988.521696
108.222127,-444.123565,-1036.288319,-79367.493593
108.224711,-2664.741391,-2368.659014,-79061.055394
108.227294,-7254.018232,-2220.617826,-78448.178995
108.229878,2220.617826,-3701.029710,-79061.055394
108.232461,9030.512492,-888.247130,-79520.712692
108.235045,12731.542202,-4293.194464,-79673.931792
108.237628,6513.812290,-1036.288319,-77835.302597
108.240212,592.164754,-3849.070898,-79367.493593
108.242795,-2516.700203,-592.164754,-79520.712692
108.245378,-1628.453072,-1332.370696,-79673.931792
108.247962,5921.647536,-888.247130,-77375.645298
108.250547,13471.748144,-3256.906145,-78294.959896
108.253133,1628.453072,-2812.782580,-78448.178995
108.255718,888.247130,-2664.741391,-77988.521696
108.258303,-2516.700203,-1628.453072,-78448.178995
108.260889,3997.112087,-444.123565,-78141.740796
108.263474,-1628.453072,592.164754,-80286.808190
108.266059,4589.276840,-2072.576638,-79980.369991
108.268645,12435.459826,-3108.864956,-78448.178995
108.271230,12287.418637,-2516.700203,-78448.178995
108.273815,3997.112087,1184.329507,-79367.493593
108.276401,6809.894666,-3849.070898,-78448.178995
108.278986,-1776.494261,-1036.288319,-77528.864398
108.281571,2072.576638,-4293.194464,-78448.178995
108.284157,5033.400406,-2960.823768,-79520.712692
108.286742,9326.594869,-740.205942,-80593.246390
108.289327,-4293.194464,1184.329507,-77988.521696
108.291913,-12287.418637,-3108.864956,-77222.426198
108.294498,-14508.036463,-1924.535449,-79367.493593
108.297083,-3849.070898,-1036.288319,-80133.589091
108.299669,-592.164754,-592.164754,-77069.207099
108.302254,4293.194464,-4293.194464,-79214.274493
108.304839,-1332.370696,-2812.782580,-79214.274493
108.307425,-9326.594869,888.247130,-79367.493593
108.310010,-8734.430116,-2812.782580,-80440.027290
108.312595,-9770.718434,-148.041188,-78907.836294
108.315181,2368.659014,-2072.576638,-80286.808190
108.317766,148.041188,-888.247130,-78601.398095
108.320351,-2368.659014,-1628.453072,-79520.712692
108.322937,0.000000,-4145.153275,-78907.836294
108.325522,-4589.276840,-592.164754,-79061.055394
108.328107,-9178.553681,-1480.411884,-79214.274493
108.330693,-10955.047942,-1480.411884,-78448.178995
108.333278,-9178.553681,-2072.576638,-78448.178995
108.335863,-8142.265362,-1924.535449,-79061.055394
108.338449,-2516.700203,-2664.741391,-80133.589091
108.341034,-2516.700203,-592.164754,-79980.369991
108.343619,-296.082377,-1628.453072,-78141.740796
108.346205,-4145.153275,-2220.617826,-77988.521696
108.348790,-2812.782580,-2960.823768,-78907.836294
108.351375,6809.894666,-740.205942,-80286.808190
108.353960,10955.047942,-3404.947333,-79520.712692
108.356545,9030.512492,-1776.494261,-77682.083497
108.359130,1924.535449,-5329.482782,-79367.493593
108.361715,-1480.411884,-444.123565,-79673.931792
108.364300,-1924.535449,-1924.535449,-78601.398095
108.366885,5477.523971,-2368.659014,-79214.274493
108.369470,4885.359217,-2516.700203,-77682.083497
108.372055,8586.388927,-2368.659014,-78601.398095
108.374640,3256.906145,-2664.741391,-79367.493593
108.377225,-5773.606348,-1036.288319,-78601.398095
108.379809,-1184.329507,-592.164754,-77375.645298
108.382394,6513.812290,-4737.318029,-79061.055394
108.384979,5181.441594,740.205942,-77682.083497
108.387564,9622.677246,-4737.318029,-79520.712692
108.390149,8586.388927,-1924.535449,-80440.027290
108.392734,11547.212695,-1776.494261,-77528.864398
108.395319,1924.535449,-1036.288319,-78601.398095
108.397904,1332.370696,-2812.782580,-76762.768900
108.400489,-740.205942,-4885.359217,-79520.712692
108.403074,7698.141797,-3256.906145,-78448.178995
108.405659,5773.606348,-2664.741391,-79980.369991
108.408244,-5033.400406,888.247130,-79980.369991
108.410829,-15396.283594,-2960.823768,-77835.302597
108.413413,-12139.377449,-3404.947333,-77835.302597
108.415998,-7846.182985,-1480.411884,-78141.740796
108.418583,0.000000,-888.247130,-80746.465489
108.421168,2960.823768,-2960.823768,-78601.398095
108.423753,-3997.112087,-1036.288319,-78448.178995
108.426338,-8734.430116,-2516.700203,-80286.808190
108.428923,-16876.695478,148.041188,-80440.027290
108.431508,-6661.853478,-2960.823768,-79061.055394
108.434093,1036.288319,-5477.523971,-77375.645298
108.436678,1332.370696,-3552.988522,-78141.740796
108.439263,740.205942,-148.041188,-79367.493593
108.441848,-1184.329507,-4441.235652,-78141.740796
108.444432,-5329.482782,-888.247130,-78601.398095
108.447017,-11547.212695,-3256.906145,-80133.589091
108.449602,-9918.759623,-1036.288319,-78754.617194
108.452187,-9622.677246,-2072.576638,-79980.369991
108.454772,-7402.059420,-1480.411884,-78448.178995
108.457357,-4145.153275,-1036.288319,-76762.768900
108.459941,-1628.453072,-3108.864956,-79827.150892
108.462526,-740.205942,-592.164754,-77988.521696
108.465110,-6365.771101,-2220.617826,-77375.645298
108.467695,-148.041188,-2960.823768,-80133.589091
108.470280,8438.347739,-1184.329507,-79673.931792
108.472864,15544.324782,-1924.535449,-79980.369991
108.475449,9178.553681,-740.205942,-78754.617194
108.478033,296.082377,-5329.482782,-78294.959896
108.480618,-296.082377,-1628.453072,-78754.617194
108.483203,-2368.659014,-1184.329507,-78601.398095
108.485787,4885.359217,-592.164754,-78141.740796
108.488372,10362.883188,-4441.235652,-79367.493593
108.490956,11547.212695,-1184.329507,-77835.302597
108.493541,-3404.947333,-2368.659014,-79673.931792
108.496126,-1036.288319,-296.082377,-79827.150892
108.498710,-888.247130,-2664.741391,-79827.150892
108.501295,1332.370696,-2220.617826,-77222.426198
108.503879,11399.171507,-2516.700203,-78448.178995
108.506464,7550.100608,-1184.329507,-80133.589091
108.509049,14063.912898,-1924.535449,-78754.617194
108.511633,3108.864956,-888.247130,-78601.398095
108.514218,4589.276840,-4441.235652,-79061.055394
108.516802,-2220.617826,296.082377,-78907.836294
108.519387,2664.741391,-4737.318029,-79520.712692
108.521972,5625.565159,-1332.370696,-78601.398095
108.524556,9326.594869,-3552.988522,-79980.369991
108.527141,-11695.253884,-592.164754,-78294.959896
108.529725,-13915.871710,-1628.453072,-77528.864398
108.532310,-11843.295072,-3404.947333,-77222.426198
108.534895,-1628.453072,-1184.329507,-79214.274493
108.537479,888.247130,-2516.700203,-80440.027290
108.540064,3404.947333,-296.082377,-78294.959896
108.542648,-5773.606348,-2516.700203,-78448.178995
108.545233,-8882.471304,-1628.453072,-78141.740796
108.547817,-5625.565159,-4293.194464,-77988.521696
108.550402,-1776.494261,-296.082377,-78907.836294
108.552987,4293.194464,-2072.576638,-79367.493593
108.555571,-8734.430116,-3256.906145,-78907.836294
108.558156,5033.400406,-2516.700203,-79980.369991
108.560702,-13471.748144,-740.205942,-80593.246390
108.563248,-5477.523971,-2072.576638,-76762.768900
108.565795,-14063.912898,-2220.617826,-78448.178995
108.568341,-7994.224174,-1480.411884,-77222.426198
108.570887,-7698.141797,-2812.782580,-77069.207099
108.573434,-4885.359217,-1628.453072,-78907.836294
108.575980,-1480.411884,-2368.659014,-79367.493593
108.578526,-1036.288319,-1776.494261,-79367.493593
108.581073,-5921.647536,-2812.782580,-78907.836294
108.583619,-4145.153275,-740.205942,-77988.521696
108.586165,7550.100608,-3701.029710,-79520.712692
108.588712,13767.830521,-1480.411884,-78907.836294
108.591258,11103.089130,-2072.576638,-77682.083497
108.593804,2368.659014,-1776.494261,-78754.617194
108.596351,-3552.988522,-2220.617826,-79980.369991
108.598897,-1776.494261,-2072.576638,-78754.617194
108.601443,3256.906145,-1628.453072,-79214.274493
108.603990,12287.418637,-1924.535449,-77682.083497
108.606536,9178.553681,-1924.535449,-78907.836294
108.609082,2368.659014,-3997.112087,-78141.740796
108.611628,-3997.112087,-2368.659014,-77375.645298
108.614175,-592.164754,-1184.329507,-78907.836294
108.616721,-1036.288319,-1184.329507,-79980.369991
108.619267,5921.647536,-3256.906145,-77222.426198
108.621814,13323.706956,-3108.864956,-78448.178995
108.624360,12583.501014,-1628.453072,-79827.150892
108.626906,8290.306550,0.000000,-80899.684589
108.629453,1036.288319,-1332.370696,-77988.521696
108.631999,-1332.370696,-2812.782580,-77835.302597
108.634545,2664.741391,-4441.235652,-79061.055394
108.637092,11251.130318,-1036.288319,-79673.931792
108.639638,4885.359217,-1332.370696,-79214.274493
108.642184,-9918.759623,-888.247130,-78601.398095
108.644731,-15396.283594,-2516.700203,-77375.645298
108.647277,-12287.418637,-2812.782580,-78907.836294
108.649823,148.041188,-1184.329507,-78601.398095
108.652370,2368.659014,-2220.617826,-79520.712692
108.654916,3404.947333,-444.123565,-78294.959896
108.657462,-6513.812290,-2368.659014,-77988.521696
108.660008,-8734.430116,-888.247130,-80133.589091
108.662563,-17764.942608,148.041188,-80440.027290
108.665116,3552.988522,-3404.947333,-79061.055394
108.667670,-5033.400406,-888.247130,-76303.111601
108.670224,11251.130318,-1480.411884,-77682.083497
108.672777,-8438.347739,-3849.070898,-81512.560987
108.675331,-5181.441594,1184.329507,-76149.892501
108.677884,-12287.418637,-4589.276840,-79980.369991
108.680438,-10214.842000,-444.123565,-77988.521696
108.682991,-9030.512492,-888.247130,-78754.617194
108.685545,-7254.018232,-2664.741391,-79520.712692
108.688098,-2812.782580,-444.123565,-78294.959896
108.690652,-444.123565,-2664.741391,-79214.274493
108.693205,-1036.288319,148.041188,-77222.426198
108.695759,-8142.265362,-1332.370696,-77682.083497
108.698312,1480.411884,-3849.070898,-78601.398095
108.700866,7698.141797,-888.247130,-79061.055394
108.703419,17468.860231,-1480.411884,-79827.150892
108.705973,7846.182985,-2072.576638,-77988.521696
108.708526,1480.411884,-4737.318029,-79673.931792
108.711080,-3849.070898,-1924.535449,-79520.712692
108.713633,1776.494261,-1480.411884,-79827.150892
108.716187,7846.182985,-296.082377,-79827.150892
108.718740,6809.894666,-1776.494261,-79214.274493
108.721294,9622.677246,-3108.864956,-77069.207099
108.723847,-4441.235652,-2368.659014,-78448.178995
108.726401,-1036.288319,-296.082377,-78754.617194
108.728954,1184.329507,-2516.700203,-79673.931792
108.731508,1776.494261,-2072.576638,-76762.768900
108.734061,10807.006753,-1776.494261,-78907.836294
108.736615,12731.542202,-1924.535449,-80133.589091
108.739168,8586.388927,1628.453072,-80286.808190
108.741722,2516.700203,-3552.988522,-80286.808190
108.744275,-296.082377,-1184.329507,-78141.740796
108.746829,740.205942,-1924.535449,-77682.083497
108.749382,5921.647536,-2664.741391,-79214.274493
108.751936,9474.636058,-4441.235652,-79827.150892
108.754489,-6661.853478,888.247130,-78601.398095
108.757043,-14508.036463,-2960.823768,-78754.617194
108.759596,-14804.118840,-2072.576638,-78294.959896
108.762150,-7994.224174,-3552.988522,-78754.617194
108.764709,1480.411884,-444.123565,-79367.493593
108.767269,3849.070898,-2516.700203,-80286.808190
108.769828,-888.247130,444.123565,-78754.617194
108.772388,-13175.665768,-2368.659014,-79367.493593
108.774947,-16284.530724,-888.247130,-79367.493593
108.777507,-2220.617826,-3552.988522,-80133.589091
108.780066,2664.741391,-1332.370696,-79827.150892
108.782626,-3552.988522,-888.247130,-77682.083497
108.785185,5181.441594,-4293.194464,-79980.369991
108.787745,-6957.935855,-1924.535449,-80899.684589
108.790304,-9918.759623,592.164754,-78601.398095
108.792864,-13767.830521,-4441.235652,-80286.808190
108.795423,-10362.883188,-592.164754,-78141.740796
108.797983,-5033.400406,-3701.029710,-79673.931792
108.800542,-4737.318029,-148.041188,-79827.150892
108.803101,740.205942,-3552.988522,-79061.055394
108.805661,-6069.688724,-296.082377,-77988.521696
108.808220,-3552.988522,-2812.782580,-78448.178995
108.810780,-2960.823768,-1184.329507,-79367.493593
108.813339,11843.295072,-2812.782580,-80133.589091
108.815899,12287.418637,-740.205942,-79367.493593
108.818458,10510.924376,-2812.782580,-77988.521696
108.821018,-1332.370696,-2664.741391,-79214.274493
108.823577,-2664.741391,-444.123565,-78907.836294
108.826137,-2220.617826,-2368.659014,-79061.055394
108.828696,3997.112087,-1036.288319,-79214.274493
108.831256,15544.324782,-4145.153275,-77069.207099
108.833815,5625.565159,-2516.700203,-78754.617194
108.836375,-3849.070898,-1776.494261,-78141.740796
108.838934,-2072.576638,-3997.112087,-77835.302597
108.841494,7402.059420,-2960.823768,-77375.645298
108.844053,7550.100608,-1480.411884,-79980.369991
108.846613,9622.677246,-1924.535449,-79520.712692
108.849172,12435.459826,-1924.535449,-79367.493593
108.851731,10066.800811,-2368.659014,-79367.493593
108.854291,2960.823768,-2368.659014,-77528.864398
108.856850,-2072.576638,-888.247130,-79367.493593
108.859410,1628.453072,-3256.906145,-77222.426198
108.861969,10362.883188,-1332.370696,-76456.330700
108.864529,5625.565159,-4737.318029,-81359.341888
108.867092,-8290.306550,2368.659014,-81206.122788
108.869656,-16580.613101,-2812.782580,-79673.931792
108.872219,-12879.583391,-3108.864956,-77835.302597
108.874783,-5329.482782,-3552.988522,-78448.178995
108.877346,1924.535449,-740.205942,-80133.589091
108.879910,5181.441594,-1036.288319,-78907.836294
108.882474,-7698.141797,-2072.576638,-77682.083497
108.885037,-13175.665768,-2960.823768,-76609.549800
108.887601,-11991.336260,-1036.288319,-80133.589091
108.890164,3108.864956,-1480.411884,-81512.560987
108.892728,-8290.306550,592.164754,-77835.302597
108.895291,7550.100608,-3552.988522,-78141.740796
108.897855,-5181.441594,-4885.359217,-83351.190182
108.900418,-10214.842000,3849.070898,-75843.454302
108.902982,-9474.636058,-5181.441594,-79980.369991
108.905545,-16136.489536,-148.041188,-78141.740796
108.908109,-6661.853478,-2664.741391,-77835.302597
108.910672,-5625.565159,-2072.576638,-82431.875585
108.913236,1184.329507,-1628.453072,-77835.302597
108.915799,-3997.112087,-2220.617826,-78754.617194
108.918363,-2516.700203,-3701.029710,-79061.055394
108.920926,-7550.100608,592.164754,-78601.398095
108.923490,7402.059420,-3108.864956,-78448.178995
108.926053,11695.253884,-1184.329507,-78601.398095
108.928617,17912.983796,-2220.617826,-79214.274493
108.931180,3256.906145,-1332.370696,-79367.493593
108.933744,-1036.288319,-2368.659014,-79827.150892
108.936307,-6217.729913,-888.247130,-78141.740796
108.938871,296.082377,-740.205942,-78754.617194
108.941435,15988.448347,-3552.988522,-79061.055394
108.943998,11399.171507,-148.041188,-79673.931792
108.946562,-1924.535449,-2516.700203,-79214.274493
108.949125,-1480.411884,-2516.700203,-79980.369991
108.951689,-2960.823768,-3108.864956,-79214.274493
108.954252,1628.453072,-1332.370696,-80440.027290
108.956816,8586.388927,-740.205942,-77069.207099
108.959379,17024.736666,-3256.906145,-78294.959896
108.961943,10362.883188,-888.247130,-78141.740796
108.964506,3997.112087,-3256.906145,-78907.836294
108.967070,-3404.947333,148.041188,-77988.521696
108.969637,-888.247130,-3997.112087,-78754.617194
108.972204,5625.565159,-1184.329507,-78141.740796
108.974771,11103.089130,-3404.947333,-79827.150892
108.977338,-3849.070898,592.164754,-79520.712692
108.979905,-14508.036463,-1036.288319,-78601.398095
108.982472,-15988.448347,-2960.823768,-78294.959896
108.985039,-6365.771101,-3552.988522,-78907.836294
108.987606,-1036.288319,-592.164754,-79061.055394
108.990173,4737.318029,-3849.070898,-80440.027290
108.992740,-592.164754,296.082377,-78294.959896
108.995308,-12583.501014,-2960.823768,-77988.521696
108.997875,-13027.624579,-2220.617826,-79214.274493
109.000442,-3701.029710,-148.041188,-78754.617194
109.003009,2960.823768,-2516.700203,-78601.398095
109.005576,888.247130,-2960.823768,-77528.864398
109.008143,-1184.329507,-888.247130,-78141.740796
109.010710,-10362.883188,-2812.782580,-81206.122788
109.013277,-11399.171507,1776.494261,-77528.864398
109.015844,-14359.995275,-3997.112087,-79827.150892
109.018411,-10955.047942,-3849.070898,-79980.369991
109.020978,-2960.823768,-148.041188,-77222.426198
109.023545,-1924.535449,-2812.782580,-80593.246390
109.026112,1480.411884,-2516.700203,-78141.740796
109.028679,-8142.265362,-3108.864956,-79673.931792
109.031247,-3997.112087,1332.370696,-78754.617194
109.033814,3849.070898,-2516.700203,-78294.959896
109.036381,14063.912898,-3404.947333,-78448.178995
109.038948,13027.624579,-888.247130,-77988.521696
109.041515,8882.471304,-1924.535449,-78907.836294
109.044082,-3108.864956,-2368.659014,-78601.398095
109.046649,-6217.729913,-2516.700203,-79061.055394
109.049216,5329.482782,-2664.741391,-79673.931792
109.051783,6069.688724,1036.288319,-79980.369991
109.054350,9474.636058,-3256.906145,-79214.274493
109.056917,4589.276840,-3552.988522,-77835.302597
109.059484,-2664.741391,-3404.947333,-78141.740796
109.062051,-3108.864956,-1480.411884,-79214.274493
109.064619,3404.947333,-1924.535449,-76609.549800
109.067186,10510.924376,-3997.112087,-77375.645298
109.069753,16432.571912,-1924.535449,-77222.426198
109.072322,13915.871710,-1776.494261,-80440.027290
109.074891,1776.494261,-1332.370696,-81206.122788
109.077460,-1332.370696,-296.082377,-80133.589091
109.080029,-3701.029710,-4737.318029,-78294.959896
109.082598,9918.759623,-1036.288319,-75843.454302
109.085167,5033.400406,-1628.453072,-78448.178995
109.087736,-4885.359217,-592.164754,-78754.617194
109.090305,-16284.530724,-1776.494261,-77375.645298
109.092874,-13471.748144,-3404.947333,-79673.931792
109.095443,-9030.512492,-1628.453072,-79520.712692
109.098013,1480.411884,-2516.700203,-79367.493593
109.100582,3256.906145,-1628.453072,-77988.521696
109.103151,0.000000,-1776.494261,-78141.740796
109.105720,-17912.983796,-1036.288319,-80286.808190
109.108289,-15248.242405,-3849.070898,-78141.740796
109.110858,6957.935855,-3108.864956,-77682.083497
109.113427,-6217.729913,-1332.370696,-78601.398095
109.115996,5181.441594,-740.205942,-77528.864398
109.118565,-7994.224174,-5921.647536,-82891.532884
109.121134,-7698.141797,3701.029710,-76303.111601
109.123703,-11547.212695,-5625.565159,-78907.836294
109.126272,-18505.148550,-2368.659014,-80593.246390
109.128842,-2368.659014,-3256.906145,-75843.454302
109.131411,-2960.823768,444.123565,-78907.836294
109.133980,4737.318029,-2812.782580,-80286.808190
109.136549,-7550.100608,-2220.617826,-80286.808190
109.139118,-5921.647536,-3256.906145,-79214.274493
109.141687,-4293.194464,0.000000,-78754.617194
109.144256,9770.718434,-2960.823768,-77375.645298
109.146825,15248.242405,-3997.112087,-79673.931792
109.149394,13767.830521,-2960.823768,-78448.178995
109.151963,2072.576638,-1924.535449,-77835.302597
109.154532,-3404.947333,-1480.411884,-79214.274493
109.157101,-6217.729913,-1628.453072,-79061.055394
109.159670,296.082377,-1332.370696,-77682.083497
109.162240,15988.448347,-2960.823768,-77988.521696
109.164809,10807.006753,-1776.494261,-78601.398095
109.167378,-1924.535449,-4589.276840,-78448.178995
109.169947,-4293.194464,-1036.288319,-78601.398095
109.172516,5329.482782,-3849.070898,-79673.931792
109.175052,7846.182985,1184.329507,-79827.150892
109.177588,12435.459826,-1776.494261,-79673.931792
109.180123,13471.748144,-2220.617826,-78601.398095
109.182659,10510.924376,-3701.029710,-77682.083497
109.185195,-592.164754,-2072.576638,-79367.493593
109.187731,-2812.782580,-1036.288319,-79827.150892
109.190267,5625.565159,-4293.194464,-78754.617194
109.192802,10066.800811,-1332.370696,-77069.207099
109.195338,-3552.988522,-592.164754,-79520.712692
109.197874,-12435.459826,-2368.659014,-79061.055394
109.200410,-14508.036463,-2812.782580,-77528.864398
109.202946,-9178.553681,-2368.659014,-78294.959896
109.205481,-3849.070898,-1628.453072,-79673.931792
109.208017,2664.741391,-2516.700203,-79673.931792
109.210553,-1776.494261,0.000000,-77988.521696
109.213089,-7550.100608,-3108.864956,-77069.207099
109.215625,-14359.995275,-2072.576638,-79520.712692
109.218160,-4293.194464,-444.123565,-80133.589091
109.220696,2072.576638,-1776.494261,-79061.055394
109.223232,592.164754,-1924.535449,-78907.836294
109.225768,740.205942,-2368.659014,-77375.645298
109.228304,-6809.894666,-1184.329507,-79520.712692
109.230840,-16432.571912,-1480.411884,-79367.493593
109.233375,-15840.407159,-2812.782580,-78294.959896
109.235911,-6809.894666,-1776.494261,-79214.274493
109.238447,1776.494261,-1776.494261,-79673.931792
109.240983,2368.659014,-740.205942,-80286.808190
109.243519,-3997.112087,-1924.535449,-79520.712692
109.246054,-7994.224174,-2812.782580,-78141.740796
109.248590,-1924.535449,-1332.370696,-78601.398095
109.251126,10658.965565,-740.205942,-77988.521696
109.253662,13767.830521,-1924.535449,-79214.274493
109.256198,14656.077652,-3404.947333,-79673.931792
109.258733,444.123565,-2812.782580,-78601.398095
109.261269,-2812.782580,-1036.288319,-78448.178995
109.263805,-6365.771101,-3256.906145,-80133.589091
109.266341,1036.288319,-444.123565,-77528.864398
109.268877,11843.295072,-2072.576638,-77528.864398
109.271412,4737.318029,-1628.453072,-78754.617194
109.273948,-888.247130,-2960.823768,-78754.617194
109.276493,-5033.400406,-444.123565,-78141.740796
109.279038,6809.894666,-1628.453072,-78448.178995
109.281583,8734.430116,-888.247130,-81665.780087
109.284128,13915.871710,-1332.370696,-79827.150892
109.286673,14508.036463,-1036.288319,-77988.521696
109.289218,6365.771101,-3108.864956,-77835.302597
109.291763,-3701.029710,-1332.370696,-79827.150892
109.294308,-4885.359217,-3256.906145,-79673.931792
109.296853,11399.171507,-2220.617826,-77069.207099
109.299398,4589.276840,-1332.370696,-78754.617194
109.301943,-4145.153275,-2220.617826,-78907.836294
109.304488,-13915.871710,-296.082377,-79980.369991
109.307032,-13175.665768,-4441.235652,-81052.903688
109.309577,-6217.729913,148.041188,-77835.302597
109.312122,-2368.659014,-5181.441594,-80746.465489
109.314667,3256.906145,-296.082377,-78754.617194
109.317212,-5329.482782,-1036.288319,-77222.426198
109.319757,-5477.523971,-2368.659014,-77222.426198
109.322302,-8586.388927,-2220.617826,-80440.027290
109.324847,-2960.823768,-1332.370696,-81052.903688
109.327392,1184.329507,-1628.453072,-80286.808190
109.329937,-3849.070898,-1184.329507,-76303.111601
109.332482,888.247130,-3701.029710,-78907.836294
109.335027,-12879.583391,-1480.411884,-79980.369991
109.337572,-11695.253884,-1036.288319,-75996.673402
109.340117,-16136.489536,-1184.329507,-79367.493593
109.342661,-1184.329507,-3849.070898,-79520.712692
109.345206,-1628.453072,-148.041188,-79061.055394
109.347751,4885.359217,-2368.659014,-79214.274493
109.350296,-5181.441594,-2368.659014,-79520.712692
109.352841,-7105.977043,-1036.288319,-79367.493593
109.355386,6217.729913,-1628.453072,-78294.959896
109.357931,11251.130318,-1776.494261,-79214.274493
109.360476,17616.901420,-740.205942,-79673.931792
109.363021,5921.647536,-2812.782580,-79980.369991
109.365566,2516.700203,-1776.494261,-77835.302597
109.368111,-7698.141797,-3552.988522,-79827.150892
109.370656,5033.400406,-1924.535449,-79520.712692
109.373201,11251.130318,-1184.329507,-77375.645298
109.375746,13915.871710,-3404.947333,-79520.712692
109.378297,-2072.576638,-3997.112087,-78448.178995
109.380849,1776.494261,-1480.411884,-79673.931792
109.383401,-6069.688724,444.123565,-79061.055394
109.385953,3701.029710,-3404.947333,-78601.398095
109.388505,14063.912898,-1776.494261,-77835.302597
109.391057,14508.036463,-1924.535449,-79520.712692
109.393609,9178.553681,-888.247130,-77682.083497
109.396160,296.082377,-3849.070898,-77682.083497
109.398712,-4441.235652,-2072.576638,-79673.931792
109.401264,2516.700203,-3404.947333,-79673.931792
109.403816,7254.018232,-740.205942,-79214.274493
109.406368,-296.082377,0.000000,-77069.207099
109.408920,-11399.171507,-2812.782580,-77835.302597
109.411471,-10955.047942,-2368.659014,-77682.083497
109.414023,-9178.553681,-1480.411884,-79673.931792
109.416575,-1628.453072,-1184.329507,-78141.740796
109.419127,296.082377,-3849.070898,-80133.589091
109.421679,-1480.411884,-740.205942,-77375.645298
109.424231,-9622.677246,-2072.576638,-77835.302597
109.426783,-11843.295072,0.000000,-79827.150892
109.429334,-5181.441594,-1924.535449,-80286.808190
109.431886,0.000000,-1776.494261,-78294.959896
109.434438,592.164754,-2516.700203,-78754.617194
109.436990,-8438.347739,148.041188,-78754.617194
109.439542,-5477.523971,-2220.617826,-78448.178995
109.442094,-17024.736666,-592.164754,-79214.274493
109.444645,-14508.036463,-3701.029710,-78754.617194
109.447197,-6957.935855,-148.041188,-78601.398095
109.449749,2220.617826,-3849.070898,-81052.903688
109.452301,2368.659014,296.082377,-77069.207099
109.454853,-5329.482782,-5033.400406,-79367.493593
109.457405,-4441.235652,-888.247130,-78907.836294
109.459957,1776.494261,-888.247130,-78907.836294
109.462508,12287.418637,-1924.535449,-79520.712692
109.465060,12731.542202,-2072.576638,-78294.959896
109.467612,12287.418637,-1924.535449,-78907.836294
109.470164,-1184.329507,-3997.112087,-80133.589091
109.472716,-3701.029710,-592.164754,-78141.740796
109.475268,-5773.606348,-3701.029710,-79520.712692
109.477819,5033.400406,0.000000,-80899.684589
109.480377,13767.830521,-1480.411884,-79061.055394
109.482935,-1036.288319,-2072.576638,-78448.178995
109.485492,2220.617826,-3997.112087,-78141.740796
109.488050,444.123565,-2812.782580,-78448.178995
109.490607,6661.853478,-888.247130,-79214.274493
109.493165,9030.512492,-2072.576638,-80899.684589
109.495722,15840.407159,-592.164754,-78448.178995
109.498280,9326.594869,-2220.617826,-78601.398095
109.500837,1036.288319,-148.041188,-80286.808190
109.503395,-3404.947333,-2960.823768,-79367.493593
109.505952,1924.535449,-1628.453072,-79214.274493
109.508510,8882.471304,-1776.494261,-77528.864398
109.511068,-5625.565159,-444.123565,-79214.274493
109.513625,-10066.800811,-1628.453072,-78294.959896
109.516183,-13175.665768,-2516.700203,-80286.808190
109.518740,-5181.441594,-2812.782580,-79673.931792
109.521298,-4885.359217,-1480.411884,-78907.836294
109.523855,2516.700203,-2368.659014,-80286.808190
109.526413,-3701.029710,592.164754,-77682.083497
109.528970,-5477.523971,-3849.070898,-76762.768900
109.531528,-8438.347739,-148.041188,-79061.055394
109.534085,-6217.729913,-1480.411884,-79214.274493
109.536643,5477.523971,-740.205942,-79367.493593
109.539201,-6217.729913,-2072.576638,-76456.330700
109.541758,-2220.617826,-2960.823768,-78907.836294
109.544316,-11399.171507,148.041188,-80133.589091
109.546873,-13175.665768,-296.082377,-79673.931792
109.549431,-16728.654289,-1184.329507,-78754.617194
109.551988,-2664.741391,-2812.782580,-78601.398095
109.554546,-148.041188,-3701.029710,-79367.493593
109.557103,5181.441594,-148.041188,-78294.959896
109.559661,-7550.100608,-2960.823768,-78448.178995
109.562223,0.000000,-3404.947333,-78754.617194
109.564786,3256.906145,-1480.411884,-78141.740796
109.567348,12731.542202,-2516.700203,-79980.369991
109.569911,14063.912898,-592.164754,-78601.398095
109.572473,6513.812290,-2812.782580,-78141.740796
109.575036,-148.041188,-2368.659014,-78294.959896
109.577598,-4145.153275,-1628.453072,-78907.836294
109.580161,2072.576638,1480.411884,-77528.864398
109.582723,15100.201217,-3108.864956,-79367.493593
109.585286,3701.029710,-740.205942,-79367.493593
109.587848,2368.659014,-2664.741391,-78601.398095
109.590411,-740.205942,-3256.906145,-83044.751983
109.592973,-5773.606348,592.164754,-75690.235202
109.595536,13323.706956,-4589.276840,-79673.931792
109.598098,13175.665768,444.123565,-78448.178995
109.600661,17616.901420,-3256.906145,-77988.521696
109.603223,3404.947333,-592.164754,-77375.645298
109.605786,-1332.370696,-3701.029710,-77682.083497
109.608348,-5773.606348,-3108.864956,-80286.808190
109.610911,9326.594869,-1628.453072,-79673.931792
109.613473,-2072.576638,1184.329507,-79980.369991
109.616036,-10510.924376,-1628.453072,-78141.740796
109.618598,-11103.089130,-3701.029710,-78448.178995
109.621161,-10066.800811,-592.164754,-79214.274493
109.623723,-4145.153275,-1924.535449,-80133.589091
109.626286,-4293.194464,-444.123565,-79367.493593
109.628848,3701.029710,-1628.453072,-77222.426198
109.631411,-13915.871710,-740.205942,-78448.178995
109.633973,-11399.171507,-2960.823768,-78601.398095
109.636536,-148.041188,-2368.659014,-79367.493593
109.639098,-2072.576638,-2960.823768,-80746.465489
109.641661,444.123565,-1332.370696,-77988.521696
109.644223,-8290.306550,-2220.617826,-78907.836294
109.646786,-9030.512492,-1036.288319,-78907.836294
109.649348,-16432.571912,-2516.700203,-78294.959896
109.651911,-15692.365970,-2960.823768,-78294.959896
109.654473,-6365.771101,-1036.288319,-78754.617194
109.657036,3108.864956,-2960.823768,-80593.246390
109.659598,1332.370696,-296.082377,-78448.178995
109.662161,-4885.359217,-3108.864956,-79061.055394
109.664719,-4441.235652,-2368.659014,-79520.712692
109.667285,6809.894666,296.082377,-78294.959896
109.669850,11251.130318,-2220.617826,-79061.055394
109.672416,13471.748144,-1480.411884,-78754.617194
109.674982,6365.771101,-3108.864956,-79520.712692
109.677547,888.247130,-2368.659014,-79520.712692
109.680113,-3997.112087,-1332.370696,-79367.493593
109.682679,9918.759623,-2220.617826,-78294.959896
109.685244,8438.347739,-592.164754,-81206.122788
109.687810,6217.729913,-1184.329507,-79520.712692
109.690376,2072.576638,-2812.782580,-79061.055394
109.692941,-1924.535449,-2812.782580,-77835.302597
109.695507,6513.812290,-1480.411884,-78448.178995
109.698073,6661.853478,-2368.659014,-79980.369991
109.700638,14804.118840,444.123565,-79367.493593
109.703204,10955.047942,-1776.494261,-78601.398095
109.705769,6809.894666,-1036.288319,-79214.274493
109.708335,-3701.029710,-2072.576638,-81359.341888
109.710901,296.082377,-3701.029710,-80133.589091
109.713466,7994.224174,148.041188,-78601.398095
109.716032,-2516.700203,-1184.329507,-77988.521696
109.718598,-7846.182985,-2516.700203,-78294.959896
109.721163,-13471.748144,-1924.535449,-79673.931792
109.723729,-6217.729913,-888.247130,-78448.178995
109.726295,-5181.441594,-1924.535449,-79520.712692
109.728860,-592.164754,-4145.153275,-80133.589091
109.731426,-3108.864956,296.082377,-77988.521696
109.733992,-9178.553681,-1924.535449,-77375.645298
109.736557,-12583.501014,-1776.494261,-79061.055394
109.739123,-5181.441594,-1480.411884,-79061.055394
109.741689,-2368.659014,-1184.329507,-79827.150892
109.744254,1332.370696,-1628.453072,-78448.178995
109.746820,-7402.059420,-2368.659014,-79367.493593
109.749386,-9178.553681,-740.205942,-78754.617194
109.751951,-15248.242405,-2072.576638,-79980.369991
109.754517,-13915.871710,-888.247130,-78141.740796
109.757083,-6217.729913,-2664.741391,-77835.302597
109.759648,2220.617826,-4293.194464,-78294.959896
109.762214,2368.659014,-888.247130,-77682.083497
109.764780,-5921.647536,-1480.411884,-78601.398095
109.767348,-444.123565,-3404.947333,-78754.617194
109.769916,5329.482782,-592.164754,-78754.617194
109.772485,15248.242405,-2516.700203,-79367.493593
109.775053,10066.800811,-888.247130,-79980.369991
109.777622,7105.977043,-2072.576638,-78294.959896
109.780190,-1184.329507,-1776.494261,-78754.617194
109.782758,-1776.494261,-2960.823768,-77988.521696
109.785327,1776.494261,-1924.535449,-77835.302597
109.787895,8586.388927,-2072.576638,-79061.055394
109.790464,8438.347739,-296.082377,-79827.150892
109.793032,-2516.700203,-3701.029710,-79214.274493
109.795600,7698.141797,-3108.864956,-79827.150892
109.798169,3849.070898,-1036.288319,-80440.027290
109.800737,9918.759623,-592.164754,-79673.931792
109.803306,13767.830521,-1924.535449,-78448.178995
109.805874,12583.501014,-1924.535449,-78601.398095
109.808442,2368.659014,-888.247130,-79367.493593
109.811011,-5033.400406,-2812.782580,-79673.931792
109.813579,3849.070898,-1480.411884,-77069.207099
109.816148,3849.070898,-1332.370696,-79061.055394
109.818716,-8438.347739,-148.041188,-79214.274493
109.821284,-10362.883188,-2072.576638,-79673.931792
109.823853,-12287.418637,-2812.782580,-79980.369991
109.826421,-6217.729913,-2368.659014,-78601.398095
109.828990,-2368.659014,-3552.988522,-80746.465489
109.831558,0.000000,-2368.659014,-78907.836294
109.834126,-2368.659014,-296.082377,-77682.083497
109.836695,-9770.718434,-2220.617826,-79980.369991
109.839263,-7994.224174,-1776.494261,-80593.246390
109.841832,-9178.553681,-1184.329507,-79214.274493
109.844400,4885.359217,-1480.411884,-77835.302597
109.846968,-4293.194464,-3997.112087,-76456.330700
109.849537,-7846.182985,-148.041188,-76915.987999
109.852105,-13767.830521,-3997.112087,-78141.740796
109.854674,-18801.230927,1036.288319,-77835.302597
109.857242,-10362.883188,-2664.741391,-77375.645298
109.859810,-4293.194464,-2812.782580,-81052.903688
109.862379,6809.894666,-1332.370696,-79520.712692
109.864947,-4441.235652,-444.123565,-79980.369991
109.867516,-1184.329507,-3404.947333,-78141.740796
109.870086,-148.041188,-1776.494261,-78907.836294
109.872657,13915.871710,-2664.741391,-78448.178995
109.875228,11251.130318,-296.082377,-79980.369991
109.877798,11103.089130,-3849.070898,-79673.931792
109.880369,592.164754,-1184.329507,-77835.302597
109.882940,296.082377,-2812.782580,-78294.959896
109.885510,3701.029710,-2072.576638,-79520.712692
109.888081,3552.988522,148.041188,-79673.931792
109.890652,5921.647536,-888.247130,-79214.274493
109.893222,1480.411884,-1924.535449,-80899.684589
109.895793,1184.329507,-3256.906145,-78907.836294
109.898364,3256.906145,-1776.494261,-80899.684589
109.900934,6069.688724,-148.041188,-79061.055394
109.903505,16284.530724,-3256.906145,-79367.493593
109.906076,14952.160028,-2516.700203,-78601.398095
109.908646,9622.677246,-1776.494261,-78754.617194
109.911217,-3849.070898,-1628.453072,-78907.836294
109.913788,740.205942,-4441.235652,-78601.398095
109.916359,4145.153275,-1776.494261,-79061.055394
109.918929,-6957.935855,740.205942,-78754.617194
109.921500,-8734.430116,-1776.494261,-80133.589091
109.924071,-9770.718434,-4293.194464,-79367.493593
109.926641,-7698.141797,-1184.329507,-77375.645298
109.929212,-5181.441594,-1480.411884,-78907.836294
109.931783,-2664.741391,0.000000,-78141.740796
109.934353,-5625.565159,-592.164754,-77222.426198
109.936924,-5181.441594,-2812.782580,-77682.083497
109.939495,-10807.006753,-444.123565,-78754.617194
109.942065,2812.782580,-2368.659014,-79520.712692
109.944636,-1036.288319,-3108.864956,-79980.369991
109.947207,-148.041188,0.000000,-77682.083497
109.949777,-7254.018232,-6365.771101,-80593.246390
109.952348,-12435.459826,444.123565,-81359.341888
109.954919,-18505.148550,-1776.494261,-78294.959896
109.957489,-8438.347739,-2368.659014,-78448.178995
109.960060,-2812.782580,-3404.947333,-76609.549800
109.962631,3404.947333,-1184.329507,-78907.836294
109.965201,-1036.288319,-1924.535449,-80286.808190
109.967772,-3701.029710,-444.123565,-79214.274493
109.970343,4293.194464,-3108.864956,-78754.617194
109.972915,10658.965565,-3552.988522,-80746.465489
109.975486,12879.583391,1332.370696,-78907.836294
109.978058,9918.759623,-3701.029710,-79980.369991
109.980630,1628.453072,-2072.576638,-79214.274493
109.983202,0.000000,-3849.070898,-77682.083497
109.985774,-1480.411884,-1924.535449,-79980.369991
109.988346,6217.729913,-1776.494261,-78601.398095
109.990917,12731.542202,-3256.906145,-79673.931792
109.993489,2220.617826,-1480.411884,-78907.836294
109.996061,-7254.018232,-2516.700203,-79367.493593
109.998633,5181.441594,-2072.576638,-78294.959896
110.001205,7105.977043,-1332.370696,-78448.178995
110.003777,16580.613101,-888.247130,-77835.302597
110.006348,11843.295072,-1776.494261,-80593.246390
110.008920,8438.347739,-1036.288319,-79980.369991
110.011492,-3256.906145,-1184.329507,-78907.836294
110.014064,2664.741391,-3404.947333,-78754.617194
110.016636,1776.494261,-1480.411884,-78754.617194
110.019207,-9622.677246,-296.082377,-79214.274493
110.021779,-9030.512492,-2664.741391,-77375.645298
110.024351,-10066.800811,-3701.029710,-78294.959896
110.026923,-2960.823768,-2960.823768,-79061.055394
110.029495,-4885.359217,-1184.329507,-79980.369991
110.032067,592.164754,-1184.329507,-78907.836294
110.034638,-4145.153275,-2368.659014,-76915.987999
110.037210,-9326.594869,-1776.494261,-78601.398095
110.039782,-5181.441594,0.000000,-78294.959896
110.042354,1480.411884,-740.205942,-79827.150892
110.044926,3404.947333,-2960.823768,-79061.055394
110.047497,-4441.235652,-2072.576638,-78601.398095
110.050069,-10362.883188,-3256.906145,-78754.617194
110.052641,-16136.489536,296.082377,-78754.617194
110.055213,-13027.624579,-2960.823768,-79673.931792
110.057785,-6957.935855,-2368.659014,-77069.207099
110.060357,3701.029710,-3256.906145,-79980.369991
110.062928,592.164754,0.000000,-78754.617194
110.065500,-3552.988522,-888.247130,-79827.150892
110.068072,2368.659014,-4145.153275,-80133.589091
110.070644,7254.018232,-2072.576638,-77988.521696
110.073216,13619.789333,-1184.329507,-79214.274493
110.075789,10362.883188,-4145.153275,-80899.684589
110.078362,3701.029710,-1924.535449,-79520.712692
110.080934,1184.329507,-1184.329507,-77835.302597
110.083507,3404.947333,-3404.947333,-78907.836294
110.086080,5329.482782,1184.329507,-79520.712692
110.088653,-444.123565,-888.247130,-79214.274493
110.091226,9326.594869,-3108.864956,-76762.768900
110.093799,-1924.535449,-2960.823768,-78141.740796
110.096372,-3552.988522,740.205942,-77682.083497
110.098945,9770.718434,-2368.659014,-77682.083497
110.101518,13027.624579,-1332.370696,-78907.836294
110.104091,17172.777854,-2220.617826,-78754.617194
110.106664,5921.647536,-1036.288319,-82431.875585
110.109236,4145.153275,-1776.494261,-80133.589091
110.111809,-5773.606348,-2664.741391,-79214.274493
110.114382,8734.430116,-1924.535449,-77835.302597
110.116955,-12435.459826,444.123565,-79061.055394
110.119528,-7698.141797,-2368.659014,-77375.645298
110.122101,-11399.171507,-4441.235652,-77682.083497
110.124674,-2516.700203,-2072.576638,-77835.302597
110.127247,-5477.523971,-148.041188,-79214.274493
110.129820,148.041188,-2960.823768,-80133.589091
110.132393,-1776.494261,592.164754,-78294.959896
110.134966,-13471.748144,-2072.576638,-80133.589091
110.137539,-2220.617826,-1776.494261,-81512.560987
110.140111,-6217.729913,-296.082377,-79980.369991
110.142684,3552.988522,-1036.288319,-78141.740796
110.145257,-3849.070898,-3849.070898,-79673.931792
110.147830,-8882.471304,-2516.700203,-76762.768900
110.150403,-15100.201217,-3256.906145,-79827.150892
110.152976,-17764.942608,592.164754,-78448.178995
110.155549,-10362.883188,-2368.659014,-78294.959896
110.158122,1332.370696,-1924.535449,-77988.521696
110.160695,2812.782580,-2516.700203,-78907.836294
110.163268,-4737.318029,-740.205942,-79520.712692
110.165841,2072.576638,-2368.659014,-79214.274493
110.168414,2960.823768,-1776.494261,-78601.398095
110.170986,13175.665768,-2812.782580,-77682.083497
110.173559,10362.883188,-740.205942,-79061.055394
110.176132,8290.306550,-3701.029710,-78907.836294
110.178706,592.164754,-1924.535449,-77682.083497
110.181280,-6809.894666,-2960.823768,-78754.617194
110.183854,8142.265362,-2664.741391,-77682.083497
110.186427,12435.459826,-1924.535449,-81052.903688
110.189001,1332.370696,-1184.329507,-79520.712692
110.191575,-3256.906145,-2812.782580,-79673.931792
110.194149,1628.453072,-4145.153275,-78294.959896
110.196723,6661.853478,-888.247130,-79214.274493
110.199296,14063.912898,-2664.741391,-77988.521696
110.201870,14952.160028,-2220.617826,-77069.207099
110.204444,13471.748144,-2664.741391,-78448.178995
110.207018,-1628.453072,-296.082377,-80440.027290
110.209592,-2664.741391,-2664.741391,-79520.712692
110.212165,1332.370696,-1480.411884,-78907.836294
110.214739,-5921.647536,-2072.576638,-79061.055394
110.217313,-8586.388927,-296.082377,-76915.987999
110.219887,-7846.182985,-5033.400406,-79980.369991
110.222460,-5625.565159,-1924.535449,-77682.083497
110.225034,-2960.823768,-1924.535449,-78907.836294
110.227608,-4589.276840,-2072.576638,-80286.808190
110.230182,-4145.153275,740.205942,-78601.398095
110.232756,-9178.553681,-1776.494261,-78294.959896
110.235329,-9622.677246,-1184.329507,-77835.302597
110.237903,3997.112087,-2664.741391,-79214.274493
110.240477,-5477.523971,-1776.494261,-80746.465489
110.243051,-4145.153275,-1776.494261,-74004.825107
110.245625,-7550.100608,-2516.700203,-78754.617194
110.248198,-14063.912898,-592.164754,-79673.931792
110.250772,-15840.407159,-740.205942,-80593.246390
110.253346,-9326.594869,-1480.411884,-79214.274493
110.255920,888.247130,-3108.864956,-76762.768900
110.258494,2664.741391,-2368.659014,-78294.959896
110.261067,-2960.823768,-1036.288319,-79980.369991
110.263641,3256.906145,-2812.782580,-79673.931792
110.266215,7105.977043,-1776.494261,-78141.740796
110.268789,14359.995275,-2812.782580,-78294.959896
110.271363,6809.894666,-1332.370696,-80286.808190
110.273936,6957.935855,-1332.370696,-78294.959896
110.276510,148.041188,-1776.494261,-79673.931792
110.279084,2664.741391,-2220.617826,-77375.645298
110.281657,7994.224174,-2220.617826,-77375.645298
110.284231,11547.212695,-1776.494261,-79673.931792
110.286804,3997.112087,-2368.659014,-79061.055394
110.289378,-2516.700203,-2960.823768,-79214.274493
110.291952,5477.523971,-3108.864956,-81206.122788
110.294525,6513.812290,-1184.329507,-79827.150892
110.297099,14359.995275,-1628.453072,-79520.712692
110.299672,13471.748144,-2516.700203,-78907.836294
110.302246,6957.935855,-2516.700203,-77988.521696
110.304819,444.123565,-2072.576638,-78294.959896
110.307393,-296.082377,-2516.700203,-80440.027290
110.309966,296.082377,-592.164754,-77835.302597
110.312540,-11399.171507,-2812.782580,-78907.836294
110.315113,-8142.265362,-1036.288319,-77835.302597
110.317687,-9918.759623,-3108.864956,-80440.027290
110.320260,-2960.823768,-1628.453072,-79061.055394
110.322834,-4885.359217,-1036.288319,-78907.836294
110.325407,-4885.359217,-2664.741391,-78754.617194
110.327981,-1036.288319,-1036.288319,-76762.768900
110.330554,-8734.430116,-2072.576638,-79673.931792
110.333128,-7402.059420,-148.041188,-78907.836294
110.335701,5773.606348,-3849.070898,-80286.808190
110.338275,1776.494261,-1480.411884,-79214.274493
110.340848,-4293.194464,-1480.411884,-78754.617194
110.343422,-12435.459826,-2664.741391,-79367.493593
110.345996,-15396.283594,-740.205942,-79367.493593
110.348569,-11103.089130,-1480.411884,-79061.055394
110.351143,-5921.647536,-1480.411884,-78907.836294
110.353716,2368.659014,-2368.659014,-78907.836294
110.356290,-296.082377,-2960.823768,-77988.521696
110.358863,-3849.070898,-888.247130,-80440.027290
110.361437,5329.482782,-1776.494261,-79367.493593
110.364010,11399.171507,-2072.576638,-78907.836294
110.366584,10807.006753,-1480.411884,-77682.083497
110.369157,10807.006753,-4293.194464,-80440.027290
110.371731,0.000000,-1332.370696,-78601.398095
110.374304,3108.864956,-1776.494261,-79367.493593
110.376878,0.000000,-1332.370696,-79520.712692
110.379451,5921.647536,-1776.494261,-78601.398095
110.382025,8882.471304,-3108.864956,-79673.931792
110.384598,-5921.647536,-148.041188,-80133.589091
110.387172,4441.235652,-1480.411884,-79520.712692
110.389746,-2960.823768,-4885.359217,-80440.027290
110.392319,15840.407159,-1184.329507,-75537.016103
110.394893,14508.036463,-1480.411884,-78754.617194
110.397466,11843.295072,-1036.288319,-78141.740796
110.400040,1480.411884,-3552.988522,-81052.903688
110.402613,-888.247130,-5033.400406,-80746.465489
110.405187,3997.112087,-888.247130,-78754.617194
110.407761,-12583.501014,-444.123565,-81512.560987
110.410334,-7846.182985,-3108.864956,-78141.740796
110.412908,-10214.842000,-2664.741391,-77682.083497
110.415481,-4885.359217,-3256.906145,-77682.083497
110.418055,-4145.153275,0.000000,-79214.274493
110.420629,-1924.535449,-3701.029710,-80286.808190
110.423202,-1480.411884,-1184.329507,-78601.398095
110.425776,-8882.471304,-2516.700203,-77988.521696
110.428349,-2812.782580,-1036.288319,-80746.465489
110.430923,-2960.823768,148.041188,-79827.150892
110.433496,-148.041188,-1332.370696,-76456.330700
110.436070,3108.864956,-4293.194464,-80899.684589
110.438644,-12139.377449,296.082377,-77835.302597
110.441217,-14508.036463,-3997.112087,-81359.341888
110.443791,-18209.066173,-888.247130,-79367.493593
110.446364,-4737.318029,-3108.864956,-78601.398095
110.448938,2368.659014,-444.123565,-80286.808190
110.451512,-2516.700203,-4441.235652,-79673.931792
110.454085,-1628.453072,-444.123565,-78754.617194
110.456659,4885.359217,-3701.029710,-80133.589091
110.459232,10362.883188,-888.247130,-78907.836294
110.461806,10066.800811,-740.205942,-78601.398095
110.464379,9770.718434,-4737.318029,-79061.055394
110.466953,2220.617826,-1628.453072,-78907.836294
110.469527,3256.906145,-1628.453072,-77988.521696
110.472100,148.041188,-1332.370696,-80133.589091
110.474674,11547.212695,-740.205942,-77375.645298
110.477247,2220.617826,-3552.988522,-78601.398095
110.479821,148.041188,-1628.453072,-77222.426198
110.482394,1776.494261,-3256.906145,-78907.836294
110.484968,4145.153275,-1628.453072,-80440.027290
110.487509,11991.336260,444.123565,-77835.302597
110.490049,14656.077652,-2516.700203,-81206.122788
110.492590,11843.295072,-1184.329507,-78907.836294
110.495131,1628.453072,-1628.453072,-79673.931792
110.497671,-296.082377,-4441.235652,-79214.274493
110.500212,888.247130,-1184.329507,-77835.302597
110.502753,-11399.171507,-1184.329507,-79367.493593
110.505293,-8734.430116,-888.247130,-77682.083497
110.507834,-9770.718434,-3701.029710,-79061.055394
110.510375,-2812.782580,-1184.329507,-78448.178995
110.512916,-4885.359217,-2220.617826,-79980.369991
110.515456,-5477.523971,-1184.329507,-79520.712692
110.517997,-9178.553681,-592.164754,-77682.083497
110.520538,-9474.636058,-3997.112087,-77222.426198
110.523078,-2072.576638,-1332.370696,-79980.369991
110.525619,-2664.741391,-592.164754,-80746.465489
110.528160,1036.288319,-2072.576638,-79827.150892
110.530700,-8734.430116,-1628.453072,-79520.712692
110.533241,-11103.089130,-4737.318029,-80746.465489
110.535782,-19541.436869,888.247130,-78601.398095
110.538322,-11695.253884,-3256.906145,-79367.493593
110.540863,-6661.853478,-1628.453072,-76762.768900
110.543404,5773.606348,-3108.864956,-77988.521696
110.545944,-4293.194464,-1924.535449,-79673.931792
110.548485,0.000000,296.082377,-79061.055394
110.551026,6513.812290,-2516.700203,-78601.398095
110.553566,9622.677246,-2960.823768,-78907.836294
110.556107,13175.665768,-740.205942,-79214.274493
110.558648,6809.894666,-2368.659014,-80593.246390
110.561188,1776.494261,-2664.741391,-78601.398095
110.563729,3256.906145,-3404.947333,-79214.274493
110.566270,-4885.359217,444.123565,-78601.398095
110.568811,10807.006753,-2960.823768,-79520.712692
110.571351,2072.576638,-3108.864956,-79214.274493
110.573892,3404.947333,-1924.535449,-77222.426198
110.576433,3404.947333,-4441.235652,-81512.560987
110.578973,4737.318029,-444.123565,-78907.836294
110.581514,14359.995275,-1924.535449,-78448.178995
110.584055,14359.995275,-2220.617826,-78907.836294
110.586595,9030.512492,-2664.741391,-78141.740796
110.589142,2812.782580,-3108.864956,-78294.959896
110.591689,2072.576638,-1924.535449,-80133.589091
110.594237,-3997.112087,-296.082377,-79061.055394
110.596784,-13027.624579,-1332.370696,-78294.959896
110.599331,-7698.141797,-2812.782580,-77222.426198
110.601878,-8882.471304,-2368.659014,-79520.712692
110.604425,-1480.411884,-2664.741391,-79827.150892
110.606972,-5033.400406,-2220.617826,-78754.617194
110.609519,-2812.782580,-2368.659014,-77988.521696
110.612066,-7994.224174,1332.370696,-79367.493593
110.614613,-8438.347739,-3108.864956,-81052.903688
110.617160,2812.782580,-2072.576638,-79673.931792
110.619708,-3108.864956,-1776.494261,-79214.274493
110.622255,-1776.494261,-1332.370696,-78294.959896
110.624802,-8438.347739,0.000000,-78448.178995
110.627349,-13175.665768,-2072.576638,-79214.274493
110.629896,-17024.736666,-2072.576638,-77682.083497
110.632443,-8586.388927,-2664.741391,-80286.808190
110.634990,-740.205942,-1036.288319,-79214.274493
110.637537,1480.411884,-2220.617826,-78907.836294
110.640084,-3404.947333,-1628.453072,-79214.274493
110.642631,4737.318029,-3849.070898,-80593.246390
110.645179,5921.647536,-740.205942,-79520.712692
110.647726,15396.283594,-2072.576638,-79980.369991
110.650273,6809.894666,-1184.329507,-77682.083497
110.652820,4145.153275,-3552.988522,-79214.274493
110.655367,3108.864956,-1332.370696,-78601.398095
110.657914,-2072.576638,-444.123565,-81052.903688
110.660461,3552.988522,-2072.576638,-78907.836294
110.663008,8734.430116,-3404.947333,-76915.987999
110.665555,1036.288319,-3404.947333,-77375.645298
110.668102,8142.265362,-3108.864956,-79061.055394
110.670650,148.041188,-296.082377,-80133.589091
110.673197,12731.542202,-2664.741391,-76609.549800
110.675744,13323.706956,-1924.535449,-79673.931792
110.678291,10658.965565,-2072.576638,-79214.274493
110.680838,6365.771101,-1924.535449,-79980.369991
110.683385,740.205942,-3108.864956,-78907.836294
110.685932,1628.453072,-2516.700203,-79214.274493
110.688479,-12435.459826,1480.411884,-78294.959896
110.691025,-10066.800811,-3552.988522,-78141.740796
110.693577,-12139.377449,-2516.700203,-77682.083497
110.696129,-1332.370696,-3849.070898,-78448.178995
110.698681,-5329.482782,-296.082377,-79980.369991
110.701233,296.082377,-1628.453072,-80133.589091
110.703785,-6217.729913,-888.247130,-79061.055394
110.706337,-14359.995275,-1480.411884,-78601.398095
110.708889,-4145.153275,-3849.070898,-77682.083497
110.711440,2960.823768,-1924.535449,-79827.150892
110.713992,-5329.482782,-296.082377,-78907.836294
110.716544,-3108.864956,-3552.988522,-78294.959896
110.719096,-17912.983796,-2368.659014,-78294.959896
110.721648,-15692.365970,-1628.453072,-78294.959896
110.724200,-14063.912898,148.041188,-78601.398095
110.726752,-1036.288319,-5329.482782,-79673.931792
110.729304,2516.700203,1036.288319,-76762.768900
110.731856,-2516.700203,-4145.153275,-80286.808190
110.734407,5181.441594,-1480.411884,-80286.808190
110.736959,3701.029710,-1628.453072,-78754.617194
110.739511,13323.706956,-2812.782580,-78141.740796
110.742063,8438.347739,-296.082377,-78601.398095
110.744615,9030.512492,-3552.988522,-79673.931792
110.747167,148.041188,-888.247130,-79980.369991
110.749719,6513.812290,-4293.194464,-79980.369991
110.752271,-1036.288319,148.041188,-80286.808190
110.754823,6661.853478,-1480.411884,-79980.369991
110.757375,5477.523971,-1480.411884,-79214.274493
110.759926,-5477.523971,-3108.864956,-79827.150892
110.762478,7550.100608,-3701.029710,-77375.645298
110.765030,9326.594869,-592.164754,-79520.712692
110.767582,17320.819043,-1628.453072,-79214.274493
110.770134,11991.336260,-740.205942,-78754.617194
110.772686,10214.842000,-3849.070898,-79827.150892
110.775238,-2368.659014,-1480.411884,-79061.055394
110.777790,3404.947333,-1036.288319,-80440.027290
110.780342,-14656.077652,148.041188,-79520.712692
110.782893,-9474.636058,-2220.617826,-76303.111601
110.785445,-9918.759623,-3701.029710,-77988.521696
110.787997,-2664.741391,-2516.700203,-78601.398095
110.790549,-3108.864956,-148.041188,-79980.369991
110.793105,-4885.359217,-3404.947333,-79520.712692
110.795661,-8142.265362,-1184.329507,-78907.836294
110.798217,-10214.842000,-1628.453072,-79061.055394
110.800773,-2516.700203,-3552.988522,-78294.959896
110.803329,-3849.070898,-888.247130,-77835.302597
110.805885,9030.512492,-6069.688724,-79520.712692
110.808441,-10955.047942,1628.453072,-79980.369991
110.810997,-12287.418637,-3552.988522,-80133.589091
110.813553,-21317.931130,0.000000,-79061.055394
110.816108,-9622.677246,-2072.576638,-79061.055394
110.818664,-4293.194464,-3701.029710,-80440.027290
110.821220,4589.276840,592.164754,-77528.864398
110.823776,-5181.441594,-3404.947333,-79214.274493
110.826332,4589.276840,-2220.617826,-79827.150892
110.828888,4737.318029,-2960.823768,-79673.931792
110.831444,13471.748144,-1480.411884,-79980.369991
110.834000,7105.977043,-296.082377,-78294.959896
110.836556,9326.594869,-3701.029710,-78601.398095
110.839112,444.123565,-3552.988522,-79367.493593
110.841668,6661.853478,-1924.535449,-78141.740796
110.844224,2516.700203,444.123565,-80440.027290
110.846780,4441.235652,-296.082377,-77988.521696
110.849336,7846.182985,-3997.112087,-77835.302597
110.851892,-9474.636058,-592.164754,-79980.369991
110.854447,9622.677246,-2368.659014,-78754.617194
110.857003,5921.647536,-1480.411884,-80440.027290
110.859559,18505.148550,-2072.576638,-78141.740796
110.862115,9178.553681,-3404.947333,-78601.398095
110.864671,9178.553681,-1628.453072,-78448.178995
110.867227,1628.453072,-1332.370696,-79367.493593
110.869783,-5033.400406,-1332.370696,-79367.493593
110.872339,-13619.789333,-1776.494261,-78448.178995
110.874898,-10214.842000,-2664.741391,-78601.398095
110.877458,-8142.265362,-1480.411884,-78754.617194
110.880017,-2072.576638,-2072.576638,-78294.959896
110.882577,-3701.029710,-3256.906145,-80133.589091
110.885136,-9474.636058,-1184.329507,-78294.959896
110.887696,-1184.329507,-2812.782580,-76915.987999
110.890255,-14211.954086,0.000000,-79061.055394
110.892815,3256.906145,-3108.864956,-79980.369991
110.895374,-6365.771101,-1332.370696,-80746.465489
110.897933,2516.700203,-740.205942,-78448.178995
110.900493,-11399.171507,-2368.659014,-78601.398095
110.903052,-19245.354492,0.000000,-77835.302597
110.905612,-14952.160028,-1628.453072,-78907.836294
110.908171,-7254.018232,-1776.494261,-78601.398095
110.910731,2664.741391,-1184.329507,-78294.959896
110.913290,-148.041188,-4885.359217,-78907.836294
110.915849,-1036.288319,-1480.411884,-79827.150892
