#time,accel_x,accel_y,accel_z
248.628085,-592.164754,-2664.741391,-78448.178995
248.630669,592.164754,-2072.576638,-78294.959896
248.633253,-592.164754,-1628.453072,-79980.369991
248.635836,-592.164754,-1036.288319,-79673.931792
248.638420,-592.164754,-2664.741391,-78448.178995
248.641004,-296.082377,-2072.576638,-78448.178995
248.643587,-296.082377,-2368.659014,-79980.369991
248.646171,-296.082377,-1480.411884,-78907.836294
248.648755,444.123565,-1628.453072,-78907.836294
248.651338,592.164754,-2368.659014,-79061.055394
248.653922,0.000000,-2516.700203,-79367.493593
248.656505,-740.205942,-1184.329507,-78754.617194
248.659089,-592.164754,-1184.329507,-79214.274493
248.661673,-1480.411884,-7402.059420,-79367.493593
248.664256,-148.041188,-1036.288319,-77069.207099
248.666840,-740.205942,-4293.194464,-79367.493593
248.669424,-592.164754,-5477.523971,-79061.055394
248.672007,-888.247130,-7254.018232,-76609.549800
248.674591,-1184.329507,-11695.253884,-77988.521696
248.677175,-1036.288319,-8882.471304,-80440.027290
248.679758,-592.164754,-5181.441594,-80286.808190
248.682342,148.041188,-1924.535449,-78294.959896
248.684925,148.041188,-2516.700203,-77682.083497
248.687509,444.123565,-888.247130,-78601.398095
248.690093,-1776.494261,-3849.070898,-79367.493593
248.692688,-296.082377,-4737.318029,-78448.178995
248.695283,0.000000,-5329.482782,-78754.617194
248.697878,-444.123565,0.000000,-79520.712692
248.700473,-1332.370696,3404.947333,-79520.712692
248.703068,-444.123565,5329.482782,-78907.836294
248.705663,-148.041188,5625.565159,-77835.302597
248.708258,-1184.329507,3256.906145,-78448.178995
248.710853,-592.164754,888.247130,-79061.055394
248.713449,-740.205942,-2812.782580,-79673.931792
248.716044,-444.123565,-1924.535449,-78294.959896
248.718639,-1036.288319,-740.205942,-79980.369991
248.721234,444.123565,1480.411884,-79673.931792
248.723829,-592.164754,8142.265362,-76149.892501
248.726424,148.041188,-1776.494261,-80286.808190
248.729019,-444.123565,-2072.576638,-80286.808190
248.731614,-592.164754,-2664.741391,-78141.740796
248.734209,-1184.329507,-4293.194464,-78141.740796
248.736804,-592.164754,8734.430116,-77682.083497
248.739399,-296.082377,-1184.329507,-79673.931792
248.741994,592.164754,3404.947333,-78294.959896
248.744590,444.123565,-3256.906145,-79673.931792
248.747185,-1776.494261,4885.359217,-80286.808190
248.749780,-296.082377,3849.070898,-79827.150892
248.752375,0.000000,4737.318029,-77835.302597
248.754970,-148.041188,296.082377,-79367.493593
248.757565,-888.247130,1036.288319,-79827.150892
248.760160,-1184.329507,-5033.400406,-79061.055394
248.762755,-444.123565,-3256.906145,-78601.398095
248.765350,1480.411884,-2664.741391,-78294.959896
248.767945,-1332.370696,3108.864956,-78601.398095
248.770540,-444.123565,7846.182985,-78907.836294
248.773136,-148.041188,4589.276840,-78907.836294
248.775731,888.247130,-592.164754,-79673.931792
248.778326,-148.041188,2664.741391,-78754.617194
248.780921,0.000000,-4589.276840,-79520.712692
248.783516,-1332.370696,-9030.512492,-78294.959896
248.786111,-592.164754,-12287.418637,-78907.836294
248.788706,-296.082377,-8290.306550,-78294.959896
248.791301,0.000000,-9178.553681,-78448.178995
248.793896,296.082377,-1184.329507,-78141.740796
248.796453,-1184.329507,-888.247130,-79061.055394
248.799050,-296.082377,-148.041188,-79061.055394
248.801647,0.000000,-3404.947333,-78907.836294
248.804244,1480.411884,-5773.606348,-78448.178995
248.806842,-1184.329507,-8438.347739,-78601.398095
248.809439,-592.164754,-9918.759623,-78601.398095
248.812036,-1036.288319,-3404.947333,-77835.302597
248.814633,444.123565,-2960.823768,-78601.398095
248.817231,-592.164754,-1184.329507,-78601.398095
248.819828,1184.329507,-4441.235652,-80440.027290
248.822425,-2072.576638,-3108.864956,-77528.864398
248.825022,740.205942,-9326.594869,-78907.836294
248.827620,-888.247130,4589.276840,-79061.055394
248.830217,0.000000,-17468.860231,-80746.465489
248.832814,-148.041188,6513.812290,-76915.987999
248.835411,740.205942,-14804.118840,-78754.617194
248.838009,-1184.329507,-3404.947333,-81972.218286
248.840606,888.247130,-4737.318029,-79061.055394
248.843203,0.000000,-7254.018232,-75843.454302
248.845800,148.041188,-7846.182985,-79367.493593
248.848398,-2220.617826,-6365.771101,-80899.684589
248.850995,592.164754,-7698.141797,-80286.808190
248.853592,-888.247130,-5625.565159,-78294.959896
248.856190,148.041188,-1776.494261,-77528.864398
248.858787,-148.041188,-2812.782580,-79827.150892
248.861384,-1184.329507,444.123565,-77835.302597
248.863981,1036.288319,-7846.182985,-78294.959896
248.866579,-1480.411884,-5625.565159,-78754.617194
248.869176,888.247130,-9918.759623,-80440.027290
248.871773,-888.247130,-3701.029710,-78141.740796
248.874370,296.082377,-6957.935855,-80133.589091
248.876968,-1184.329507,-2960.823768,-78601.398095
248.879565,-1332.370696,-2368.659014,-79673.931792
248.882162,-148.041188,5773.606348,-78294.959896
248.884759,740.205942,2664.741391,-78294.959896
248.887357,-296.082377,3701.029710,-78448.178995
248.889954,-888.247130,444.123565,-79827.150892
248.892551,-1332.370696,5329.482782,-78601.398095
248.895148,-1332.370696,444.123565,-79061.055394
248.897746,-740.205942,-740.205942,-77682.083497
248.900223,148.041188,296.082377,-79061.055394
248.902700,-148.041188,2072.576638,-79367.493593
248.905177,-296.082377,-1184.329507,-79061.055394
248.907654,-1480.411884,-444.123565,-79367.493593
248.910131,-444.123565,296.082377,-78754.617194
248.912609,148.041188,5329.482782,-77375.645298
248.915086,-740.205942,1628.453072,-79520.712692
248.917563,0.000000,2220.617826,-77069.207099
248.920040,-1184.329507,-1628.453072,-78907.836294
248.922517,148.041188,-5773.606348,-78601.398095
248.924994,-592.164754,2812.782580,-79214.274493
248.927471,-592.164754,-1480.411884,-77682.083497
248.929949,-740.205942,-3404.947333,-80440.027290
248.932426,-1480.411884,-5181.441594,-79214.274493
248.934903,-1036.288319,4293.194464,-79520.712692
248.937380,740.205942,2220.617826,-77528.864398
248.939857,592.164754,3256.906145,-76149.892501
248.942334,-1480.411884,5477.523971,-77375.645298
248.944812,-1036.288319,2368.659014,-80133.589091
248.947289,-592.164754,2812.782580,-80286.808190
248.949766,444.123565,1480.411884,-77682.083497
248.952243,-592.164754,-740.205942,-78754.617194
248.954720,148.041188,-1480.411884,-78294.959896
248.957197,-1628.453072,-1628.453072,-80133.589091
248.959675,-740.205942,1332.370696,-78448.178995
248.962152,1332.370696,3108.864956,-79367.493593
248.964629,-148.041188,4441.235652,-79367.493593
248.967106,-592.164754,4441.235652,-79520.712692
248.969583,296.082377,-1184.329507,-79061.055394
248.972060,-148.041188,444.123565,-78141.740796
248.974537,-148.041188,-2664.741391,-79061.055394
248.977015,-1184.329507,-7550.100608,-79061.055394
248.979492,-592.164754,-11399.171507,-79214.274493
248.981969,-444.123565,-8586.388927,-77835.302597
248.984446,740.205942,-11547.212695,-79673.931792
248.986923,-1480.411884,-2960.823768,-78448.178995
248.989400,-1332.370696,-1480.411884,-79827.150892
248.991878,-888.247130,2220.617826,-78294.959896
248.994355,740.205942,-2960.823768,-79367.493593
248.996832,444.123565,-3701.029710,-79214.274493
248.999346,-1184.329507,-8882.471304,-79367.493593
249.001861,-1628.453072,-8142.265362,-79367.493593
249.004376,-148.041188,-6957.935855,-77988.521696
249.006890,444.123565,-6513.812290,-79367.493593
249.009405,-1184.329507,-4737.318029,-79061.055394
249.011919,-1036.288319,-1776.494261,-80746.465489
249.014434,0.000000,-1776.494261,-77835.302597
249.016948,1184.329507,5625.565159,-76149.892501
249.019463,-888.247130,888.247130,-77069.207099
249.021977,-148.041188,-10214.842000,-77988.521696
249.024492,592.164754,2220.617826,-77835.302597
249.027006,740.205942,-8142.265362,-79827.150892
249.029521,-444.123565,-4737.318029,-82431.875585
249.032035,-444.123565,-7550.100608,-77682.083497
249.034550,-888.247130,-4589.276840,-76915.987999
249.037065,-1036.288319,-6513.812290,-79214.274493
249.039579,0.000000,-6513.812290,-78294.959896
249.042094,-592.164754,-2516.700203,-78294.959896
249.044608,-444.123565,-6809.894666,-79980.369991
249.047123,-592.164754,-2516.700203,-77988.521696
249.049637,148.041188,-6809.894666,-79673.931792
249.052152,592.164754,-6217.729913,-78448.178995
249.054666,-1036.288319,-2812.782580,-77682.083497
249.057181,-888.247130,-6661.853478,-79367.493593
249.059695,-444.123565,-5033.400406,-78754.617194
249.062210,1332.370696,-5625.565159,-79520.712692
249.064724,-2516.700203,-3997.112087,-78294.959896
249.067239,-740.205942,-3256.906145,-78601.398095
249.069754,-1332.370696,3404.947333,-78907.836294
249.072268,1036.288319,4737.318029,-78754.617194
249.074783,0.000000,4737.318029,-79520.712692
249.077297,-296.082377,2072.576638,-78907.836294
249.079812,-1776.494261,1924.535449,-79520.712692
249.082326,-888.247130,-444.123565,-79367.493593
249.084841,-148.041188,-1776.494261,-78907.836294
249.087355,0.000000,-296.082377,-77682.083497
249.089870,-592.164754,0.000000,-78907.836294
249.092384,-740.205942,-1036.288319,-79061.055394
249.094899,-1480.411884,444.123565,-79367.493593
249.097413,-888.247130,2072.576638,-79367.493593
249.099955,1184.329507,1036.288319,-78448.178995
249.102496,-592.164754,2960.823768,-79214.274493
249.105037,-888.247130,5033.400406,-80286.808190
249.107578,-1036.288319,4737.318029,-77682.083497
249.110120,0.000000,-10214.842000,-79214.274493
249.112661,888.247130,4885.359217,-76762.768900
249.115202,-444.123565,-10214.842000,-80899.684589
249.117743,-1480.411884,10955.047942,-78601.398095
249.120285,296.082377,4145.153275,-77069.207099
249.122826,148.041188,2072.576638,-79673.931792
249.125367,296.082377,3404.947333,-82278.656485
249.127908,-592.164754,888.247130,-80746.465489
249.130450,592.164754,4441.235652,-77222.426198
249.132991,-444.123565,2072.576638,-76303.111601
249.135532,296.082377,1184.329507,-78141.740796
249.138073,-740.205942,-2220.617826,-80899.684589
249.140615,-740.205942,1332.370696,-77528.864398
249.143156,-148.041188,-2220.617826,-79673.931792
249.145697,-592.164754,3108.864956,-80593.246390
249.148238,-740.205942,3256.906145,-80286.808190
249.150780,-148.041188,6957.935855,-77375.645298
249.153321,740.205942,-1184.329507,-78448.178995
249.155862,296.082377,1776.494261,-77069.207099
249.158403,-888.247130,-5033.400406,-80440.027290
249.160944,-740.205942,-7550.100608,-79214.274493
249.163486,296.082377,-10214.842000,-78907.836294
249.166027,740.205942,-10955.047942,-77988.521696
249.168568,888.247130,-8438.347739,-79520.712692
249.171109,0.000000,-5773.606348,-77988.521696
249.173651,-444.123565,-1332.370696,-78448.178995
249.176192,-1184.329507,-2220.617826,-80133.589091
249.178733,-444.123565,-1628.453072,-78448.178995
249.181274,0.000000,-5773.606348,-79367.493593
249.183816,-740.205942,-5625.565159,-78907.836294
249.186357,-1332.370696,-8438.347739,-78907.836294
249.188898,-148.041188,-7254.018232,-78601.398095
249.191439,444.123565,-6217.729913,-78448.178995
249.193981,-888.247130,-5477.523971,-79061.055394
249.196522,-740.205942,-888.247130,-79673.931792
249.199063,0.000000,296.082377,-77682.083497
249.201530,-888.247130,-5477.523971,-78601.398095
249.203997,-888.247130,-1776.494261,-80440.027290
249.206464,-444.123565,-888.247130,-79980.369991
249.208930,444.123565,-2220.617826,-77988.521696
249.211397,-888.247130,-8142.265362,-79367.493593
249.213864,444.123565,-6513.812290,-78448.178995
249.216331,-1036.288319,-6661.853478,-80746.465489
249.218798,-296.082377,-5033.400406,-79827.150892
249.221265,296.082377,-9326.594869,-77222.426198
249.223732,-888.247130,-2072.576638,-78448.178995
249.226198,0.000000,-5181.441594,-80593.246390
249.228665,-740.205942,-1480.411884,-77375.645298
249.231132,592.164754,-7105.977043,-77988.521696
249.233599,-592.164754,-4589.276840,-77835.302597
249.236066,-740.205942,-5921.647536,-79061.055394
249.238533,-740.205942,-2812.782580,-78907.836294
249.241000,592.164754,-6217.729913,-79520.712692
249.243466,-444.123565,-5773.606348,-78601.398095
249.245933,-148.041188,-5625.565159,-79673.931792
249.248400,-1480.411884,-2072.576638,-79673.931792
249.250867,0.000000,4885.359217,-77682.083497
249.253334,296.082377,3997.112087,-79367.493593
249.255801,148.041188,7698.141797,-79061.055394
249.258268,-740.205942,4441.235652,-78601.398095
249.260734,-1036.288319,2368.659014,-78907.836294
249.263201,-1480.411884,-2960.823768,-79673.931792
249.265668,740.205942,-2812.782580,-79214.274493
249.268135,-444.123565,148.041188,-78601.398095
249.270602,-740.205942,1776.494261,-78601.398095
249.273069,-1776.494261,1628.453072,-78448.178995
249.275536,-1184.329507,-1184.329507,-80899.684589
249.278002,148.041188,3404.947333,-78601.398095
249.280469,-296.082377,4589.276840,-78907.836294
249.282936,444.123565,2812.782580,-79367.493593
249.285403,-1332.370696,-3552.988522,-81512.560987
249.287870,444.123565,5329.482782,-76456.330700
249.290337,-296.082377,-3108.864956,-77988.521696
249.292803,148.041188,-2516.700203,-79061.055394
249.295270,444.123565,3256.906145,-78294.959896
249.297737,-1036.288319,-148.041188,-79214.274493
249.300243,-1924.535449,2664.741391,-80899.684589
249.302749,-444.123565,4293.194464,-80286.808190
249.305256,-888.247130,3997.112087,-80286.808190
249.307762,148.041188,1184.329507,-81206.122788
249.310268,-1776.494261,1924.535449,-78448.178995
249.312774,0.000000,1776.494261,-77222.426198
249.315280,-888.247130,-592.164754,-78601.398095
249.317786,0.000000,-1184.329507,-79980.369991
249.320292,-1332.370696,1332.370696,-80286.808190
249.322798,-740.205942,1036.288319,-79673.931792
249.325305,-1184.329507,2220.617826,-80133.589091
249.327811,740.205942,2072.576638,-80593.246390
249.330317,444.123565,1776.494261,-77988.521696
249.332823,592.164754,1332.370696,-78294.959896
249.335329,-1036.288319,-148.041188,-77682.083497
249.337835,-1184.329507,-7254.018232,-79520.712692
249.340341,-296.082377,-11251.130318,-80133.589091
249.342847,1332.370696,-10362.883188,-78601.398095
249.345354,296.082377,-10066.800811,-78754.617194
249.347860,-296.082377,-3701.029710,-79367.493593
249.350366,-1924.535449,-2516.700203,-79827.150892
249.352872,444.123565,740.205942,-78601.398095
249.355378,-296.082377,-1332.370696,-78907.836294
249.357884,-148.041188,-3552.988522,-77835.302597
249.360390,-444.123565,-7105.977043,-78601.398095
249.362896,-1480.411884,-6661.853478,-78754.617194
249.365403,-592.164754,-7846.182985,-79061.055394
249.367909,148.041188,-4885.359217,-80899.684589
249.370415,1036.288319,-3849.070898,-76149.892501
249.372921,148.041188,-1332.370696,-78754.617194
249.375427,-1332.370696,-6365.771101,-81665.780087
249.377933,-148.041188,0.000000,-79980.369991
249.380388,740.205942,-1924.535449,-77988.521696
249.382842,0.000000,-5329.482782,-78907.836294
249.385296,-592.164754,-6217.729913,-79520.712692
249.387751,148.041188,-5921.647536,-78601.398095
249.390205,148.041188,-10214.842000,-81052.903688
249.392659,740.205942,-5329.482782,-77682.083497
249.395114,444.123565,-8734.430116,-77835.302597
249.397568,-1924.535449,-2072.576638,-77988.521696
249.400022,1332.370696,-8438.347739,-79520.712692
249.402477,-1184.329507,-2664.741391,-79061.055394
249.404931,-444.123565,-5625.565159,-79061.055394
249.407385,-740.205942,-5477.523971,-79673.931792
249.409840,-148.041188,-6217.729913,-79061.055394
249.412294,592.164754,-3256.906145,-78141.740796
249.414748,296.082377,-4885.359217,-78907.836294
249.417203,-592.164754,-5477.523971,-79061.055394
249.419657,-1776.494261,-5033.400406,-77682.083497
249.422112,-592.164754,-3404.947333,-78294.959896
249.424566,-148.041188,1776.494261,-79520.712692
249.427020,740.205942,5921.647536,-79367.493593
249.429475,-888.247130,6069.688724,-78754.617194
249.431929,296.082377,6217.729913,-78294.959896
249.434383,-1036.288319,1924.535449,-78141.740796
249.436838,-148.041188,-2664.741391,-79980.369991
249.439292,-148.041188,-3108.864956,-80593.246390
249.441746,-888.247130,0.000000,-76762.768900
249.444201,-1628.453072,888.247130,-79061.055394
249.446655,-1184.329507,1628.453072,-79520.712692
249.449109,-148.041188,3404.947333,-79214.274493
249.451564,0.000000,4293.194464,-77988.521696
249.454018,-148.041188,1184.329507,-76915.987999
249.456472,-740.205942,2812.782580,-80286.808190
249.458927,-888.247130,2664.741391,-80286.808190
249.461381,-888.247130,-4293.194464,-79520.712692
249.463836,0.000000,-592.164754,-77222.426198
249.466290,296.082377,0.000000,-78141.740796
249.468744,148.041188,4441.235652,-76762.768900
249.471199,-1036.288319,148.041188,-80440.027290
249.473653,444.123565,6957.935855,-80286.808190
249.476107,1480.411884,2516.700203,-77988.521696
249.478604,-296.082377,2664.741391,-77988.521696
249.481100,-740.205942,1480.411884,-78294.959896
249.483596,-888.247130,1480.411884,-80286.808190
249.486093,-444.123565,-1184.329507,-79061.055394
249.488589,-148.041188,-740.205942,-78907.836294
249.491086,-1036.288319,444.123565,-79367.493593
249.493582,-1184.329507,4737.318029,-78754.617194
249.496078,-1480.411884,2220.617826,-78754.617194
249.498575,0.000000,1628.453072,-79061.055394
249.501071,-444.123565,0.000000,-79673.931792
249.503567,-1480.411884,740.205942,-79520.712692
249.506064,-1332.370696,-4885.359217,-79673.931792
249.508560,-1184.329507,-7846.182985,-78448.178995
249.511057,-148.041188,-10510.924376,-79061.055394
249.513553,444.123565,-9474.636058,-78754.617194
249.516049,-592.164754,-10658.965565,-78907.836294
249.518546,-296.082377,-3849.070898,-77988.521696
249.521042,-296.082377,-4589.276840,-80440.027290
249.523539,-148.041188,1924.535449,-78601.398095
249.526035,-296.082377,-1924.535449,-78907.836294
249.528531,-740.205942,-5033.400406,-77835.302597
249.531028,0.000000,-7846.182985,-79673.931792
249.533524,444.123565,-8882.471304,-79061.055394
249.536020,592.164754,-8586.388927,-78294.959896
249.538517,-1332.370696,-9030.512492,-80593.246390
249.541013,296.082377,-2664.741391,-80133.589091
249.543510,-592.164754,-7994.224174,-77988.521696
249.546006,-1036.288319,2516.700203,-79980.369991
249.548502,592.164754,-740.205942,-77682.083497
249.550999,740.205942,-4589.276840,-77375.645298
249.553495,-296.082377,-8734.430116,-79673.931792
249.555992,-2220.617826,-5477.523971,-80746.465489
249.558488,444.123565,-7550.100608,-79367.493593
249.560984,-148.041188,-6957.935855,-77222.426198
249.563481,-1036.288319,-5625.565159,-78294.959896
249.565977,1628.453072,-2516.700203,-77835.302597
249.568473,-1036.288319,-4441.235652,-79061.055394
249.570970,2516.700203,-5033.400406,-78907.836294
249.573466,-1628.453072,-7105.977043,-80286.808190
249.575963,-148.041188,-5033.400406,-79061.055394
249.578491,-1628.453072,-4293.194464,-78294.959896
249.581020,444.123565,-4589.276840,-78448.178995
249.583548,444.123565,-5181.441594,-77988.521696
249.586077,148.041188,-5181.441594,-79520.712692
249.588605,-1776.494261,-3404.947333,-77682.083497
249.591134,0.000000,2072.576638,-78448.178995
249.593662,0.000000,4293.194464,-78907.836294
249.596191,-148.041188,6069.688724,-80593.246390
249.598719,-888.247130,4293.194464,-78754.617194
249.601248,-296.082377,5773.606348,-78448.178995
249.603776,-888.247130,296.082377,-78294.959896
249.606305,740.205942,-740.205942,-79061.055394
249.608833,740.205942,-592.164754,-79367.493593
249.611362,-1480.411884,1184.329507,-78754.617194
249.613890,-740.205942,1924.535449,-79214.274493
249.616419,-740.205942,2220.617826,-78754.617194
249.618947,444.123565,3552.988522,-79520.712692
249.621476,148.041188,5625.565159,-77375.645298
249.624004,-296.082377,2516.700203,-79520.712692
249.626533,-1776.494261,4441.235652,-79827.150892
249.629061,-1184.329507,-3552.988522,-79520.712692
249.631590,-1480.411884,-2072.576638,-81052.903688
249.634118,592.164754,3256.906145,-79061.055394
249.636647,148.041188,-1036.288319,-77835.302597
249.639175,-444.123565,1776.494261,-78907.836294
249.641704,296.082377,4293.194464,-80440.027290
249.644232,-1184.329507,7994.224174,-79520.712692
249.646761,-296.082377,1036.288319,-78141.740796
249.649289,2368.659014,-1184.329507,-78907.836294
249.651818,-2516.700203,296.082377,-78294.959896
249.654346,740.205942,148.041188,-77988.521696
249.656875,-1776.494261,1036.288319,-78448.178995
249.659403,0.000000,888.247130,-78294.959896
249.661932,-1036.288319,1184.329507,-80593.246390
249.664460,-888.247130,2812.782580,-78141.740796
249.666989,-592.164754,-444.123565,-78754.617194
249.669517,1332.370696,2072.576638,-78907.836294
249.672046,-888.247130,592.164754,-79214.274493
249.674574,-740.205942,-6513.812290,-78294.959896
249.677103,-1036.288319,-10214.842000,-79214.274493
249.679655,-592.164754,-12731.542202,-79367.493593
249.682208,-740.205942,-10214.842000,-78907.836294
249.684761,-888.247130,-7846.182985,-79061.055394
249.687314,-1480.411884,-1036.288319,-78448.178995
249.689866,-148.041188,740.205942,-78907.836294
249.692419,-592.164754,-888.247130,-78294.959896
249.694972,-444.123565,-3108.864956,-79520.712692
249.697525,-1332.370696,-5921.647536,-79367.493593
249.700077,-444.123565,-8290.306550,-78907.836294
249.702630,1036.288319,-10510.924376,-78448.178995
249.705183,-592.164754,-7846.182985,-78294.959896
249.707736,-1184.329507,-2812.782580,-80133.589091
249.710288,-888.247130,-2072.576638,-78754.617194
249.712841,-444.123565,-2812.782580,-81206.122788
249.715394,148.041188,740.205942,-79827.150892
249.717947,-444.123565,-5773.606348,-79214.274493
249.720500,-740.205942,-5921.647536,-78448.178995
249.723052,-592.164754,-6069.688724,-78141.740796
249.725605,0.000000,-9770.718434,-77682.083497
249.728158,-444.123565,-8438.347739,-78294.959896
249.730711,-1184.329507,-7105.977043,-78141.740796
249.733263,0.000000,-3108.864956,-78448.178995
249.735816,-888.247130,-4885.359217,-79520.712692
249.738369,-296.082377,-2812.782580,-78601.398095
249.740922,-1480.411884,-4885.359217,-79520.712692
249.743474,-444.123565,-4589.276840,-79061.055394
249.746027,-444.123565,-7105.977043,-79520.712692
249.748580,1480.411884,-7994.224174,-79367.493593
249.751133,-444.123565,-6661.853478,-78601.398095
249.753685,-148.041188,-6809.894666,-78601.398095
249.756238,-1924.535449,-888.247130,-78141.740796
249.758791,1036.288319,3552.988522,-78754.617194
249.761344,-740.205942,9326.594869,-79980.369991
249.763897,-444.123565,7698.141797,-79980.369991
249.766449,-296.082377,5033.400406,-77682.083497
249.769002,-888.247130,888.247130,-77682.083497
249.771555,0.000000,-3256.906145,-79827.150892
249.774108,-592.164754,-3552.988522,-79367.493593
249.776660,1036.288319,-2072.576638,-78294.959896
249.779213,-1332.370696,1036.288319,-78754.617194
249.781783,296.082377,3404.947333,-79673.931792
249.784352,-296.082377,4589.276840,-79214.274493
249.786921,0.000000,4885.359217,-78294.959896
249.789490,-1184.329507,5033.400406,-79673.931792
249.792059,296.082377,4145.153275,-78141.740796
249.794628,-1036.288319,-6809.894666,-78601.398095
249.797197,-592.164754,-444.123565,-81665.780087
249.799766,296.082377,2812.782580,-76609.549800
249.802335,444.123565,-6809.894666,-79520.712692
249.804904,592.164754,5329.482782,-78448.178995
249.807473,-148.041188,2664.741391,-78754.617194
249.810042,-1480.411884,9918.759623,-78754.617194
249.812611,592.164754,888.247130,-81512.560987
249.815180,-2072.576638,4737.318029,-79061.055394
249.817749,0.000000,-2516.700203,-80899.684589
249.820318,-148.041188,1036.288319,-79367.493593
249.822887,-1036.288319,-2368.659014,-78448.178995
249.825456,1036.288319,3849.070898,-78754.617194
249.828025,148.041188,2516.700203,-78141.740796
249.830594,740.205942,3552.988522,-79827.150892
249.833163,-296.082377,-740.205942,-79827.150892
249.835732,-592.164754,1036.288319,-79980.369991
249.838301,-888.247130,-740.205942,-79673.931792
249.840870,-888.247130,-5033.400406,-79214.274493
249.843439,-296.082377,-11695.253884,-78294.959896
249.846008,-148.041188,-12435.459826,-77682.083497
249.848577,-888.247130,-13471.748144,-79980.369991
249.851146,-1332.370696,-4885.359217,-78907.836294
249.853715,-444.123565,-2368.659014,-79214.274493
249.856284,148.041188,1184.329507,-79061.055394
249.858853,888.247130,-1628.453072,-78907.836294
249.861422,-1184.329507,-1480.411884,-79214.274493
249.863991,-592.164754,-8142.265362,-79520.712692
249.866560,-2072.576638,-10214.842000,-78907.836294
249.869129,-296.082377,-10066.800811,-79827.150892
249.871698,1036.288319,-5181.441594,-77682.083497
249.874267,-740.205942,-3256.906145,-79061.055394
249.876836,-1184.329507,-8438.347739,-81359.341888
249.879405,-296.082377,-4589.276840,-77528.864398
249.881974,740.205942,2812.782580,-75996.673402
249.884555,-888.247130,-740.205942,-79367.493593
249.887136,-740.205942,-9178.553681,-80746.465489
249.889716,-1480.411884,-12435.459826,-80899.684589
249.892297,1036.288319,-10362.883188,-78141.740796
249.894878,-148.041188,-6957.935855,-77528.864398
249.897458,-296.082377,-5329.482782,-78754.617194
249.900039,148.041188,-2664.741391,-77375.645298
249.902620,-1036.288319,-2812.782580,-78141.740796
249.905200,-888.247130,-4441.235652,-78754.617194
249.907781,-1776.494261,-6365.771101,-79827.150892
249.910362,148.041188,-5181.441594,-79214.274493
249.912942,296.082377,-5477.523971,-77682.083497
249.915523,148.041188,-7846.182985,-79214.274493
249.918104,-1628.453072,-3849.070898,-79367.493593
249.920685,-1332.370696,148.041188,-78907.836294
249.923265,-444.123565,3552.988522,-79214.274493
249.925846,888.247130,7254.018232,-79061.055394
249.928427,-592.164754,7402.059420,-78601.398095
249.931007,-1480.411884,8290.306550,-77988.521696
249.933588,-1480.411884,1036.288319,-78907.836294
249.936169,-592.164754,-2220.617826,-79980.369991
249.938749,-296.082377,-3997.112087,-79673.931792
249.941330,-296.082377,0.000000,-78754.617194
249.943911,-592.164754,1480.411884,-79673.931792
249.946491,-740.205942,3404.947333,-77682.083497
249.949072,-444.123565,5477.523971,-80133.589091
249.951653,740.205942,6365.771101,-77375.645298
249.954233,-888.247130,5921.647536,-77988.521696
249.956814,-740.205942,740.205942,-80133.589091
249.959395,-444.123565,-6069.688724,-79980.369991
249.961975,-296.082377,7402.059420,-80440.027290
249.964556,-296.082377,-5329.482782,-79827.150892
249.967137,740.205942,-740.205942,-80899.684589
249.969717,592.164754,888.247130,-75996.673402
249.972298,-888.247130,5329.482782,-79214.274493
249.974879,-2072.576638,9030.512492,-80746.465489
249.977460,740.205942,3256.906145,-78907.836294
249.980040,-148.041188,1628.453072,-77528.864398
249.982621,444.123565,-3849.070898,-80746.465489
249.985202,-2368.659014,296.082377,-79061.055394
249.987791,1628.453072,-1036.288319,-78294.959896
249.990380,444.123565,3256.906145,-78601.398095
249.992969,148.041188,-444.123565,-79214.274493
249.995558,-148.041188,3404.947333,-79214.274493
249.998147,-444.123565,3552.988522,-79827.150892
250.000737,-592.164754,1924.535449,-78141.740796
250.003326,-444.123565,-6513.812290,-79980.369991
250.005915,148.041188,-11399.171507,-79214.274493
250.008504,-888.247130,-11547.212695,-77069.207099
250.011093,-148.041188,-14656.077652,-79367.493593
250.013682,444.123565,-6809.894666,-78601.398095
250.016272,-592.164754,-4293.194464,-79980.369991
250.018861,-148.041188,2220.617826,-79520.712692
250.021450,-592.164754,-1332.370696,-78294.959896
250.024039,148.041188,-1184.329507,-78907.836294
250.026628,0.000000,-8882.471304,-79827.150892
250.029217,-1924.535449,-7994.224174,-79673.931792
250.031807,1924.535449,-9918.759623,-76609.549800
250.034396,-592.164754,-5625.565159,-77069.207099
250.036985,-1184.329507,-7550.100608,-81359.341888
250.039574,-296.082377,-3256.906145,-80899.684589
250.042163,-296.082377,1776.494261,-77069.207099
250.044752,-296.082377,-1924.535449,-78448.178995
250.047342,-1480.411884,-2516.700203,-77988.521696
250.049931,-296.082377,-5625.565159,-80440.027290
250.052520,148.041188,-11547.212695,-78294.959896
250.055109,740.205942,-12879.583391,-77375.645298
250.057698,-1628.453072,-10066.800811,-79520.712692
250.060287,444.123565,-2664.741391,-79673.931792
250.062877,-1184.329507,-3108.864956,-79827.150892
250.065466,-592.164754,-444.123565,-78754.617194
250.068055,444.123565,-3997.112087,-79827.150892
250.070644,-592.164754,-1776.494261,-78601.398095
250.073233,-592.164754,-6513.812290,-79061.055394
250.075823,-740.205942,-9178.553681,-77528.864398
250.078412,148.041188,-10510.924376,-77835.302597
250.081001,-888.247130,-3552.988522,-79214.274493
250.083590,-592.164754,2072.576638,-79520.712692
250.086179,0.000000,9030.512492,-79520.712692
250.088768,1036.288319,9178.553681,-79214.274493
250.091304,888.247130,8142.265362,-78601.398095
250.093839,-1480.411884,3108.864956,-78907.836294
250.096375,-296.082377,-2516.700203,-79061.055394
250.098910,-1036.288319,-4145.153275,-79367.493593
250.101446,1184.329507,-4885.359217,-78754.617194
250.103981,-1332.370696,-1036.288319,-79980.369991
250.106517,-888.247130,2368.659014,-78907.836294
250.109052,-1480.411884,6365.771101,-79520.712692
250.111588,0.000000,7846.182985,-78601.398095
250.114123,740.205942,8290.306550,-78601.398095
250.116659,-1184.329507,-1776.494261,-79673.931792
250.119194,-296.082377,-3108.864956,-78907.836294
250.121729,-1036.288319,-5033.400406,-80440.027290
250.124265,148.041188,-6217.729913,-80746.465489
250.126800,888.247130,2220.617826,-78294.959896
250.129336,-1480.411884,6069.688724,-78754.617194
250.131871,444.123565,9622.677246,-77069.207099
250.134407,-592.164754,5033.400406,-77682.083497
250.136942,-1036.288319,5033.400406,-79061.055394
250.139478,-444.123565,0.000000,-80440.027290
250.142013,-1184.329507,1480.411884,-77375.645298
250.144549,-740.205942,-3552.988522,-77682.083497
250.147084,-1628.453072,148.041188,-78294.959896
250.149620,-888.247130,592.164754,-79520.712692
250.152155,0.000000,296.082377,-78907.836294
250.154691,-444.123565,4589.276840,-77988.521696
250.157226,0.000000,3108.864956,-78907.836294
250.159762,-1480.411884,-1036.288319,-80286.808190
250.162297,-148.041188,-7105.977043,-79367.493593
250.164833,-1036.288319,-11695.253884,-77528.864398
250.167368,-148.041188,-16728.654289,-78754.617194
250.169903,-592.164754,-9326.594869,-79980.369991
250.172439,-2072.576638,-6069.688724,-79520.712692
250.174974,1776.494261,740.205942,-78141.740796
250.177510,0.000000,1332.370696,-79061.055394
250.180045,-444.123565,2368.659014,-79827.150892
250.182581,-1184.329507,-3256.906145,-79980.369991
250.185116,-740.205942,-5921.647536,-78907.836294
250.187652,-296.082377,-11843.295072,-77835.302597
250.190187,888.247130,-15544.324782,-79827.150892
250.192740,-592.164754,-1776.494261,-77528.864398
250.195293,444.123565,3108.864956,-76609.549800
250.197846,-888.247130,-7254.018232,-79827.150892
250.200399,-1480.411884,-6809.894666,-82738.313784
250.202952,740.205942,-2516.700203,-78141.740796
250.205505,-1924.535449,-2960.823768,-79980.369991
250.208058,148.041188,-5329.482782,-79061.055394
250.210611,-148.041188,-9326.594869,-78294.959896
250.213164,592.164754,-6661.853478,-77682.083497
250.215717,-1332.370696,-10807.006753,-79214.274493
250.218270,444.123565,-4885.359217,-77222.426198
250.220823,444.123565,-4885.359217,-78294.959896
250.223375,-1332.370696,-296.082377,-78294.959896
250.225928,-740.205942,-740.205942,-79673.931792
250.228481,-444.123565,-2368.659014,-79061.055394
250.231034,-444.123565,-10658.965565,-78601.398095
250.233587,740.205942,-6217.729913,-79367.493593
250.236140,-296.082377,-3108.864956,-78907.836294
250.238693,-296.082377,2664.741391,-79367.493593
250.241246,-444.123565,6661.853478,-78141.740796
250.243799,740.205942,7254.018232,-79061.055394
250.246352,-444.123565,11399.171507,-78601.398095
250.248905,-592.164754,3849.070898,-79061.055394
250.251458,-148.041188,-148.041188,-79214.274493
250.254011,-888.247130,-5181.441594,-79367.493593
250.256564,1184.329507,-3256.906145,-78907.836294
250.259117,-444.123565,-3849.070898,-80593.246390
250.261670,-2072.576638,3108.864956,-77988.521696
250.264222,740.205942,3849.070898,-76149.892501
250.266775,148.041188,8290.306550,-78448.178995
250.269328,148.041188,10362.883188,-80746.465489
250.271881,-592.164754,-296.082377,-77682.083497
250.274434,-1628.453072,4145.153275,-79520.712692
250.276987,-296.082377,-10066.800811,-82431.875585
250.279540,740.205942,-2516.700203,-81512.560987
250.282093,148.041188,-2812.782580,-75690.235202
250.284646,-1776.494261,9030.512492,-78294.959896
250.287199,-148.041188,6957.935855,-79367.493593
250.289752,-148.041188,7105.977043,-80286.808190
250.292305,-296.082377,8290.306550,-79367.493593
250.294871,-1036.288319,-2664.741391,-80440.027290
250.297437,-444.123565,592.164754,-77988.521696
250.300003,-740.205942,-4293.194464,-78907.836294
250.302570,0.000000,444.123565,-78448.178995
250.305136,740.205942,-3552.988522,-78754.617194
250.307702,-888.247130,3256.906145,-79367.493593
250.310268,-1480.411884,888.247130,-79980.369991
250.312835,-888.247130,-444.123565,-78448.178995
250.315401,-740.205942,-8438.347739,-80746.465489
250.317967,148.041188,-9474.636058,-78294.959896
250.320533,-1332.370696,-16876.695478,-79214.274493
250.323100,-444.123565,-9030.512492,-78601.398095
250.325666,-888.247130,-7698.141797,-79214.274493
250.328232,-888.247130,-1036.288319,-78601.398095
250.330798,1332.370696,-2220.617826,-78907.836294
250.333364,-740.205942,-296.082377,-79061.055394
250.335931,-592.164754,-4885.359217,-79520.712692
250.338497,148.041188,-7254.018232,-77988.521696
250.341063,-2368.659014,-11843.295072,-80133.589091
250.343629,296.082377,-12287.418637,-80286.808190
250.346196,296.082377,-3404.947333,-77069.207099
250.348762,-888.247130,-3701.029710,-77988.521696
250.351328,0.000000,-2516.700203,-79367.493593
250.353894,-444.123565,1184.329507,-79520.712692
250.356461,148.041188,-2072.576638,-77835.302597
250.359027,-740.205942,-3701.029710,-77988.521696
250.361593,-2072.576638,-12583.501014,-80440.027290
250.364159,0.000000,-13471.748144,-80440.027290
250.366725,888.247130,-11843.295072,-78601.398095
250.369292,-2516.700203,-6217.729913,-77528.864398
250.371858,-1036.288319,-5329.482782,-78601.398095
250.374424,-592.164754,-2072.576638,-79214.274493
250.376990,-888.247130,1332.370696,-78448.178995
250.379557,-296.082377,-2516.700203,-79673.931792
250.382123,-2960.823768,-3256.906145,-79061.055394
250.384689,592.164754,-10362.883188,-78907.836294
250.387255,-1036.288319,-4885.359217,-78294.959896
250.389822,444.123565,-1036.288319,-78294.959896
250.392388,-592.164754,5625.565159,-78448.178995
250.394954,-592.164754,6217.729913,-80593.246390
250.397531,-296.082377,8734.430116,-78601.398095
250.400108,-592.164754,5477.523971,-78448.178995
250.402684,-592.164754,2960.823768,-79673.931792
250.405261,148.041188,-2516.700203,-79673.931792
250.407838,-444.123565,-3849.070898,-78448.178995
250.410415,-1036.288319,-5033.400406,-79061.055394
250.412992,-888.247130,1036.288319,-78754.617194
250.415568,-1924.535449,1924.535449,-79980.369991
250.418145,-444.123565,10214.842000,-77988.521696
250.420722,-296.082377,3701.029710,-80746.465489
250.423299,-444.123565,-4441.235652,-80899.684589
250.425876,0.000000,5329.482782,-77222.426198
250.428452,-592.164754,1480.411884,-75383.797003
250.431029,-1184.329507,-888.247130,-79827.150892
250.433606,148.041188,1924.535449,-80133.589091
250.436183,148.041188,296.082377,-78601.398095
250.438760,-2368.659014,4589.276840,-80286.808190
250.441336,592.164754,2664.741391,-78601.398095
250.443913,592.164754,7105.977043,-78448.178995
250.446490,444.123565,1332.370696,-79214.274493
250.449067,-1332.370696,3997.112087,-77835.302597
250.451644,-1184.329507,-3108.864956,-78448.178995
250.454221,296.082377,-3997.112087,-79520.712692
250.456797,1184.329507,-1332.370696,-79673.931792
250.459374,-444.123565,3404.947333,-78294.959896
250.461951,-1332.370696,-3849.070898,-79367.493593
250.464528,-592.164754,-4737.318029,-78294.959896
250.467105,0.000000,-7698.141797,-79214.274493
250.469681,592.164754,-10214.842000,-78907.836294
250.472258,-1184.329507,-11843.295072,-78754.617194
250.474835,-740.205942,-8882.471304,-78601.398095
250.477412,-1332.370696,-7105.977043,-78601.398095
250.479995,296.082377,-296.082377,-79061.055394
250.482579,888.247130,-2072.576638,-78601.398095
250.485162,-888.247130,-2368.659014,-77682.083497
250.487746,-1036.288319,-2664.741391,-79520.712692
250.490329,148.041188,-6069.688724,-78448.178995
250.492913,888.247130,-5033.400406,-76609.549800
250.495496,-592.164754,-11843.295072,-79827.150892
250.498080,-1184.329507,-5625.565159,-81359.341888
250.500663,-148.041188,-6513.812290,-78907.836294
250.503247,-1184.329507,-4885.359217,-80593.246390
250.505830,592.164754,0.000000,-78754.617194
250.508414,888.247130,-6365.771101,-76762.768900
250.510997,-1332.370696,-5773.606348,-77835.302597
250.513581,-1332.370696,-13471.748144,-81359.341888
250.516164,-1628.453072,-9030.512492,-79520.712692
250.518748,-148.041188,-12435.459826,-78907.836294
250.521331,148.041188,-3256.906145,-77682.083497
250.523915,-592.164754,-2812.782580,-79214.274493
250.526498,-740.205942,1036.288319,-78754.617194
250.529082,-444.123565,-2516.700203,-78141.740796
250.531665,-1332.370696,-3997.112087,-79061.055394
250.534249,-1036.288319,-7698.141797,-79214.274493
250.536832,-592.164754,-3552.988522,-78754.617194
250.539416,-296.082377,-1184.329507,-79673.931792
250.541999,148.041188,5329.482782,-79367.493593
250.544583,-444.123565,9030.512492,-79673.931792
250.547166,-296.082377,7846.182985,-78754.617194
250.549750,-1036.288319,5033.400406,-78754.617194
250.552333,-1036.288319,-1036.288319,-78601.398095
250.554917,-444.123565,-1332.370696,-78601.398095
250.557501,148.041188,-2960.823768,-79673.931792
250.560084,-1776.494261,-2072.576638,-78601.398095
250.562668,-740.205942,1480.411884,-78907.836294
250.565251,-3108.864956,444.123565,-79520.712692
250.567835,-1628.453072,8438.347739,-79827.150892
250.570418,2368.659014,4737.318029,-78448.178995
250.573002,-2664.741391,1480.411884,-78754.617194
250.575585,1924.535449,4441.235652,-76303.111601
250.578169,-1628.453072,-9918.759623,-81512.560987
250.580752,-1480.411884,3552.988522,-79520.712692
250.583340,592.164754,-1924.535449,-80286.808190
250.585928,-2368.659014,5921.647536,-80440.027290
250.588515,592.164754,4885.359217,-80286.808190
250.591103,-2368.659014,10510.924376,-78141.740796
250.593691,888.247130,1628.453072,-78141.740796
250.596279,-592.164754,3256.906145,-76762.768900
250.598867,-888.247130,-3849.070898,-79214.274493
250.601454,-740.205942,-1628.453072,-79980.369991
250.604042,592.164754,-3849.070898,-78754.617194
250.606630,740.205942,888.247130,-78907.836294
250.609218,-148.041188,296.082377,-79520.712692
250.611806,-148.041188,-2220.617826,-78907.836294
250.614393,296.082377,-7994.224174,-78907.836294
250.616981,1036.288319,-10658.965565,-78907.836294
250.619569,-148.041188,-12731.542202,-79061.055394
250.622157,-740.205942,-8438.347739,-78294.959896
250.624745,-1036.288319,-5477.523971,-80286.808190
250.627332,148.041188,-1776.494261,-78141.740796
250.629920,444.123565,-3552.988522,-79673.931792
250.632508,-740.205942,888.247130,-78448.178995
250.635096,-740.205942,-5921.647536,-78448.178995
250.637684,-148.041188,-6809.894666,-77988.521696
250.640271,-1628.453072,-7994.224174,-80440.027290
250.642859,444.123565,-14063.912898,-81818.999186
250.645447,-148.041188,-2960.823768,-76609.549800
250.648035,-148.041188,-4737.318029,-79061.055394
250.650623,-1184.329507,-7846.182985,-79673.931792
250.653210,-148.041188,444.123565,-78754.617194
250.655798,888.247130,-5477.523971,-77069.207099
250.658386,-1776.494261,-5625.565159,-77835.302597
250.660974,592.164754,-11843.295072,-79827.150892
250.663562,-1184.329507,-9770.718434,-80286.808190
250.666149,148.041188,-11547.212695,-79673.931792
250.668737,-740.205942,-1924.535449,-79520.712692
250.671325,1184.329507,-2516.700203,-79520.712692
250.673913,-148.041188,444.123565,-78448.178995
250.676501,444.123565,-3404.947333,-78294.959896
250.679088,-1480.411884,-5181.441594,-78448.178995
250.681676,-148.041188,-5773.606348,-79520.712692
250.684264,592.164754,592.164754,-78601.398095
250.686855,-296.082377,444.123565,-79520.712692
250.689446,740.205942,7846.182985,-79827.150892
250.692037,-888.247130,6809.894666,-79061.055394
250.694628,0.000000,5477.523971,-79061.055394
250.697219,740.205942,3552.988522,-78448.178995
250.699810,-444.123565,740.205942,-78141.740796
250.702401,-296.082377,-444.123565,-79520.712692
250.704992,148.041188,-3108.864956,-78907.836294
250.707583,-740.205942,-148.041188,-79214.274493
250.710175,0.000000,1184.329507,-78601.398095
250.712766,-1480.411884,7254.018232,-81512.560987
250.715357,-296.082377,3849.070898,-79520.712692
250.717948,592.164754,-296.082377,-76915.987999
250.720539,-148.041188,-2812.782580,-79061.055394
250.723130,-1036.288319,-2516.700203,-79061.055394
250.725721,148.041188,1776.494261,-79061.055394
250.728312,-888.247130,-1776.494261,-78294.959896
250.730903,-740.205942,4885.359217,-79827.150892
250.733494,0.000000,8882.471304,-78448.178995
250.736085,-1628.453072,6809.894666,-80440.027290
250.738676,-148.041188,3849.070898,-79520.712692
250.741267,0.000000,2072.576638,-77682.083497
250.743858,0.000000,-444.123565,-78294.959896
250.746449,-1332.370696,-1480.411884,-79980.369991
250.749040,-888.247130,-5329.482782,-79214.274493
250.751631,296.082377,-1036.288319,-78141.740796
250.754222,296.082377,444.123565,-79061.055394
250.756813,-1480.411884,-1776.494261,-79214.274493
250.759404,-888.247130,-4885.359217,-78601.398095
250.761995,296.082377,-10214.842000,-78448.178995
250.764587,-740.205942,-12879.583391,-79673.931792
250.767178,-1184.329507,-9326.594869,-79061.055394
250.769769,-1184.329507,-7402.059420,-78601.398095
250.772360,-740.205942,-2516.700203,-77835.302597
250.774951,-148.041188,-3552.988522,-79367.493593
250.777542,0.000000,-1480.411884,-78754.617194
250.780133,-1628.453072,-3108.864956,-78141.740796
250.782724,444.123565,-5773.606348,-77528.864398
250.785315,-2072.576638,-7698.141797,-80593.246390
250.787906,0.000000,-14359.995275,-82891.532884
250.790500,-740.205942,-2368.659014,-76456.330700
250.793093,444.123565,-6365.771101,-76915.987999
250.795686,1036.288319,-9030.512492,-78448.178995
250.798280,-296.082377,-5033.400406,-78448.178995
250.800873,-1184.329507,-6365.771101,-79827.150892
250.803466,-444.123565,-4589.276840,-79827.150892
250.806059,-1036.288319,-12879.583391,-78907.836294
250.808653,444.123565,-8438.347739,-77835.302597
250.811246,-1184.329507,-11251.130318,-79214.274493
250.813839,-1184.329507,-3256.906145,-79980.369991
250.816432,-148.041188,-4145.153275,-78448.178995
250.819025,888.247130,-1036.288319,-78141.740796
250.821619,-888.247130,-2960.823768,-79214.274493
250.824212,-148.041188,-3552.988522,-78907.836294
250.826805,-1628.453072,-1924.535449,-78907.836294
250.829398,888.247130,-296.082377,-77988.521696
250.831992,148.041188,3108.864956,-79367.493593
250.834585,1036.288319,8142.265362,-79061.055394
250.837178,-1332.370696,7698.141797,-78294.959896
250.839771,-1628.453072,3997.112087,-78294.959896
250.842364,-148.041188,592.164754,-79673.931792
250.844958,-148.041188,-148.041188,-79520.712692
250.847551,-148.041188,1036.288319,-78907.836294
250.850144,-740.205942,-1036.288319,-79214.274493
250.852737,-296.082377,-2516.700203,-77835.302597
250.855330,-1184.329507,4293.194464,-80286.808190
250.857924,-296.082377,9474.636058,-78601.398095
250.860517,444.123565,2220.617826,-79214.274493
250.863110,-444.123565,-4293.194464,-79061.055394
250.865703,-592.164754,-1332.370696,-79673.931792
250.868297,-888.247130,1628.453072,-78907.836294
250.870890,-592.164754,148.041188,-77528.864398
250.873483,-444.123565,3997.112087,-78601.398095
250.876076,-296.082377,8142.265362,-79673.931792
250.878669,-1184.329507,6513.812290,-79061.055394
250.881263,740.205942,2664.741391,-79673.931792
250.883856,-444.123565,3701.029710,-79520.712692
250.886449,-888.247130,-2664.741391,-79520.712692
250.889042,-592.164754,-1332.370696,-78294.959896
250.891636,-888.247130,-2368.659014,-78294.959896
250.894229,-148.041188,1184.329507,-79061.055394
250.896822,444.123565,-444.123565,-79980.369991
250.899415,-1776.494261,-2516.700203,-78907.836294
250.902009,-1776.494261,-6661.853478,-79673.931792
250.904602,740.205942,-10066.800811,-78754.617194
250.907195,-296.082377,-12435.459826,-78754.617194
250.909789,-296.082377,-9178.553681,-79673.931792
250.912382,-2516.700203,-6069.688724,-79520.712692
250.914975,740.205942,-888.247130,-78294.959896
250.917569,-592.164754,-3552.988522,-79061.055394
250.920162,592.164754,-4293.194464,-79520.712692
250.922755,-1036.288319,-7254.018232,-78448.178995
250.925348,-1184.329507,-9622.677246,-78294.959896
250.927942,-1332.370696,-2812.782580,-79520.712692
250.930535,1332.370696,-4885.359217,-77835.302597
250.933128,-592.164754,-10658.965565,-78907.836294
250.935722,-740.205942,-888.247130,-77375.645298
250.938315,-740.205942,-4441.235652,-78448.178995
250.940908,-148.041188,-592.164754,-82585.094684
250.943502,-1480.411884,-2664.741391,-79673.931792
250.946095,-592.164754,-9918.759623,-80899.684589
250.948688,-296.082377,-11991.336260,-79061.055394
250.951281,-592.164754,-13619.789333,-78601.398095
250.953875,-1628.453072,-5033.400406,-77375.645298
250.956468,888.247130,-3404.947333,-78907.836294
250.959061,0.000000,1184.329507,-79214.274493
250.961655,-296.082377,-3849.070898,-78448.178995
250.964248,-296.082377,-5625.565159,-79520.712692
250.966841,-1776.494261,-2220.617826,-79673.931792
250.969434,444.123565,1332.370696,-79980.369991
250.972028,-592.164754,4293.194464,-78294.959896
250.974621,1184.329507,5033.400406,-77682.083497
250.977214,-1776.494261,6513.812290,-78754.617194
250.979808,-1036.288319,4441.235652,-79061.055394
250.982401,-148.041188,3552.988522,-78448.178995
250.984994,592.164754,-1480.411884,-78601.398095
250.987588,-740.205942,296.082377,-79367.493593
250.990181,444.123565,-740.205942,-79214.274493
250.992774,-592.164754,296.082377,-77069.207099
250.995367,-1480.411884,-740.205942,-79827.150892
250.997961,296.082377,10807.006753,-78907.836294
251.000554,-296.082377,1184.329507,-78907.836294
251.003147,-444.123565,-1776.494261,-78754.617194
251.005740,-888.247130,-740.205942,-80133.589091
251.008333,1184.329507,-148.041188,-76762.768900
251.010927,-740.205942,740.205942,-77988.521696
251.013520,-888.247130,5329.482782,-79673.931792
251.016113,-592.164754,7105.977043,-79673.931792
251.018706,444.123565,7105.977043,-78601.398095
251.021299,-148.041188,2960.823768,-79827.150892
251.023893,-444.123565,6809.894666,-79061.055394
251.026486,-296.082377,-1480.411884,-78754.617194
251.029079,0.000000,-2664.741391,-77988.521696
251.031672,-444.123565,-4589.276840,-79520.712692
251.034265,-1184.329507,740.205942,-79367.493593
251.036858,-444.123565,-444.123565,-79061.055394
251.039452,-888.247130,-4737.318029,-78601.398095
251.042045,-740.205942,-7254.018232,-78448.178995
251.044638,-592.164754,-10066.800811,-79367.493593
251.047231,-740.205942,-9622.677246,-79061.055394
251.049824,-444.123565,-9918.759623,-78601.398095
251.052418,-444.123565,-5181.441594,-78601.398095
251.055011,-296.082377,-1480.411884,-78448.178995
251.057604,-1332.370696,-2072.576638,-79520.712692
251.060197,296.082377,-2960.823768,-78754.617194
251.062790,0.000000,-4885.359217,-78601.398095
251.065384,-296.082377,-11843.295072,-77069.207099
251.067977,-2072.576638,-8586.388927,-79520.712692
251.070570,740.205942,-888.247130,-74924.139704
251.073163,-888.247130,-6069.688724,-78294.959896
251.075756,-1776.494261,-9474.636058,-83657.628382
251.078350,-888.247130,-1184.329507,-79214.274493
251.080943,148.041188,-7402.059420,-77069.207099
251.083536,148.041188,-3404.947333,-76149.892501
251.086129,-740.205942,-11843.295072,-78907.836294
251.088722,-296.082377,-7994.224174,-79827.150892
251.091315,-888.247130,-11103.089130,-79061.055394
251.093909,-444.123565,-3701.029710,-79673.931792
251.096502,-1628.453072,-5625.565159,-80746.465489
251.099095,1776.494261,-1776.494261,-79673.931792
251.101687,-740.205942,-2368.659014,-77682.083497
251.104278,-444.123565,-3256.906145,-78754.617194
251.106870,-148.041188,-740.205942,-78141.740796
251.109461,-888.247130,1480.411884,-79980.369991
251.112053,1924.535449,3701.029710,-78907.836294
251.114645,-148.041188,5329.482782,-78907.836294
251.117236,-1036.288319,6661.853478,-78448.178995
251.119828,-1332.370696,3108.864956,-79520.712692
251.122419,148.041188,148.041188,-79061.055394
251.125011,444.123565,296.082377,-78754.617194
251.127603,444.123565,-592.164754,-78448.178995
251.130194,-888.247130,592.164754,-80440.027290
251.132786,148.041188,1776.494261,-80746.465489
251.135377,1036.288319,11251.130318,-77222.426198
251.137969,740.205942,592.164754,-78601.398095
251.140561,740.205942,-1924.535449,-79980.369991
251.143152,-1184.329507,2960.823768,-78294.959896
251.145744,-1480.411884,-296.082377,-80440.027290
251.148335,296.082377,296.082377,-79520.712692
251.150927,592.164754,2220.617826,-76149.892501
251.153518,-296.082377,4589.276840,-77988.521696
251.156110,-888.247130,9326.594869,-79061.055394
251.158702,-148.041188,5033.400406,-79673.931792
251.161293,-1184.329507,6069.688724,-79214.274493
251.163885,0.000000,-2220.617826,-78907.836294
251.166476,-444.123565,-1628.453072,-77988.521696
251.169068,-888.247130,-5625.565159,-79061.055394
251.171660,-1480.411884,148.041188,-78294.959896
251.174251,888.247130,-3256.906145,-78294.959896
251.176843,-592.164754,-3701.029710,-79214.274493
251.179434,-1036.288319,-7402.059420,-78754.617194
251.182026,296.082377,-8290.306550,-78294.959896
251.184618,0.000000,-12583.501014,-79214.274493
251.187209,-296.082377,-8438.347739,-79367.493593
251.189801,-1036.288319,-6661.853478,-79214.274493
251.192392,0.000000,-888.247130,-78754.617194
251.194984,-592.164754,-3108.864956,-79673.931792
251.197576,888.247130,-2516.700203,-79367.493593
251.200167,444.123565,-5625.565159,-76915.987999
251.202759,-444.123565,-2368.659014,-79214.274493
251.205349,-1332.370696,-13915.871710,-82891.532884
251.207939,444.123565,-5477.523971,-79061.055394
251.210529,0.000000,-4441.235652,-75843.454302
251.213119,-444.123565,-10510.924376,-79214.274493
251.215709,-2960.823768,-1036.288319,-77375.645298
251.218299,148.041188,-9770.718434,-77835.302597
251.220889,-740.205942,-4145.153275,-79520.712692
251.223479,444.123565,-11251.130318,-80440.027290
251.226070,-2220.617826,-8290.306550,-78294.959896
251.228660,-888.247130,-11547.212695,-77682.083497
251.231250,-296.082377,-4885.359217,-78448.178995
251.233840,-1332.370696,-3552.988522,-80133.589091
251.236430,0.000000,-740.205942,-78448.178995
251.239020,-1480.411884,-4441.235652,-78294.959896
251.241610,-444.123565,-1332.370696,-79061.055394
251.244200,-888.247130,3256.906145,-80133.589091
251.246790,592.164754,5773.606348,-78601.398095
251.249380,296.082377,5921.647536,-78907.836294
251.251971,148.041188,5329.482782,-77988.521696
251.254561,-1776.494261,4589.276840,-78907.836294
251.257151,-1628.453072,2664.741391,-79214.274493
251.259741,-444.123565,-1628.453072,-79214.274493
251.262331,296.082377,-296.082377,-77682.083497
251.264921,-888.247130,-888.247130,-79827.150892
251.267511,-592.164754,2664.741391,-77069.207099
251.270101,-1184.329507,6661.853478,-80440.027290
251.272691,0.000000,-9030.512492,-81972.218286
251.275281,1332.370696,11399.171507,-76915.987999
251.277871,-888.247130,-2960.823768,-77835.302597
251.280462,-1036.288319,-4885.359217,-80286.808190
251.283052,296.082377,3701.029710,-77682.083497
251.285642,-296.082377,-2220.617826,-79214.274493
251.288232,296.082377,7994.224174,-77682.083497
251.290822,-1924.535449,3404.947333,-79520.712692
251.293412,1184.329507,9918.759623,-77528.864398
251.296002,-1480.411884,592.164754,-80133.589091
251.298592,1776.494261,4589.276840,-78754.617194
251.301182,-2072.576638,-4885.359217,-79214.274493
251.303772,1332.370696,-1184.329507,-79214.274493
251.306362,-2072.576638,-740.205942,-79061.055394
251.308951,888.247130,-5181.441594,-79673.931792
251.311540,-1036.288319,-4885.359217,-78294.959896
251.314129,-1332.370696,-9030.512492,-78601.398095
251.316718,-148.041188,-9918.759623,-78601.398095
251.319307,-888.247130,-13471.748144,-80286.808190
251.321895,-592.164754,-5773.606348,-78907.836294
251.324484,-888.247130,-4145.153275,-78601.398095
251.327073,444.123565,-1480.411884,-77988.521696
251.329662,-1184.329507,-4145.153275,-78754.617194
251.332251,740.205942,-5477.523971,-78141.740796
251.334839,-2812.782580,-7994.224174,-80286.808190
251.337428,0.000000,-7254.018232,-79980.369991
251.340017,148.041188,-3701.029710,-76762.768900
251.342606,444.123565,-7550.100608,-78907.836294
251.345195,-1480.411884,2516.700203,-79061.055394
251.347783,-592.164754,-8290.306550,-78448.178995
251.350372,-1332.370696,-2072.576638,-78601.398095
251.352961,296.082377,-9770.718434,-79367.493593
251.355550,296.082377,-8734.430116,-78141.740796
251.358139,148.041188,-11991.336260,-79367.493593
251.360727,-888.247130,-7402.059420,-78907.836294
251.363316,-592.164754,-6661.853478,-78601.398095
251.365905,444.123565,-5329.482782,-80286.808190
251.368494,-444.123565,-888.247130,-79673.931792
251.371083,-444.123565,-5921.647536,-79061.055394
251.373672,-592.164754,-1776.494261,-78448.178995
251.376260,-296.082377,2220.617826,-79061.055394
251.378849,148.041188,5033.400406,-78448.178995
251.381438,296.082377,4293.194464,-78907.836294
251.384027,296.082377,5921.647536,-77988.521696
251.386616,-888.247130,3701.029710,-78907.836294
251.389204,-1776.494261,3552.988522,-79520.712692
251.391793,0.000000,-1184.329507,-78601.398095
251.394382,740.205942,444.123565,-78907.836294
251.396971,0.000000,-888.247130,-78294.959896
251.399560,-1480.411884,2072.576638,-79980.369991
251.402148,-592.164754,6809.894666,-80899.684589
251.404737,-148.041188,-5181.441594,-79367.493593
251.407326,444.123565,3108.864956,-79980.369991
251.409915,296.082377,-6513.812290,-79673.931792
251.412502,-1776.494261,-740.205942,-78141.740796
251.415090,-1332.370696,4885.359217,-78601.398095
251.417677,740.205942,4885.359217,-77682.083497
251.420265,888.247130,5181.441594,-77528.864398
251.422852,-444.123565,3849.070898,-79673.931792
251.425440,-592.164754,5329.482782,-79061.055394
251.428027,-444.123565,148.041188,-78754.617194
251.430615,0.000000,1332.370696,-79673.931792
251.433202,444.123565,-1332.370696,-79673.931792
251.435790,-888.247130,1628.453072,-77835.302597
251.438377,-1184.329507,-1184.329507,-79061.055394
251.440965,-148.041188,-3849.070898,-79980.369991
251.443552,1036.288319,-6661.853478,-79214.274493
251.446140,0.000000,-8142.265362,-78448.178995
251.448727,-1036.288319,-10510.924376,-78294.959896
251.451315,-1776.494261,-10955.047942,-78448.178995
251.453902,-740.205942,-6957.935855,-79673.931792
251.456490,-1332.370696,-2516.700203,-79673.931792
251.459077,-148.041188,-2220.617826,-78601.398095
251.461664,-592.164754,-2960.823768,-78448.178995
251.464252,2368.659014,-5329.482782,-78448.178995
251.466839,-2368.659014,-6957.935855,-78601.398095
251.469427,-148.041188,-11251.130318,-77988.521696
251.472014,-1184.329507,-5477.523971,-77069.207099
251.474602,148.041188,-5181.441594,-79214.274493
251.477189,-1036.288319,-296.082377,-79367.493593
251.479777,-1036.288319,-6661.853478,-80133.589091
251.482364,-1480.411884,-2220.617826,-78754.617194
251.484952,148.041188,-10510.924376,-78754.617194
251.487539,592.164754,-10362.883188,-77682.083497
251.490127,-2072.576638,-13619.789333,-79980.369991
251.492714,-740.205942,-10066.800811,-77069.207099
251.495302,-592.164754,-4293.194464,-78141.740796
251.497889,1184.329507,-3108.864956,-80440.027290
251.500477,-296.082377,-1776.494261,-78907.836294
251.503064,148.041188,-4885.359217,-79673.931792
251.505652,-2072.576638,-1332.370696,-77835.302597
251.508239,444.123565,2516.700203,-79673.931792
251.510827,-1480.411884,5033.400406,-79214.274493
251.513414,296.082377,7846.182985,-77682.083497
251.515999,-1480.411884,4737.318029,-78294.959896
251.518584,-148.041188,3108.864956,-79214.274493
251.521170,-444.123565,1332.370696,-79520.712692
251.523755,-592.164754,-592.164754,-78907.836294
251.526340,592.164754,0.000000,-78448.178995
251.528925,-444.123565,-1480.411884,-76609.549800
251.531510,-1776.494261,-592.164754,-81818.999186
251.534095,-1776.494261,-2664.741391,-79520.712692
251.536681,-740.205942,1036.288319,-81052.903688
251.539266,592.164754,8882.471304,-76762.768900
251.541851,-888.247130,-3552.988522,-80286.808190
251.544436,148.041188,3108.864956,-80286.808190
251.547021,0.000000,-1628.453072,-76149.892501
251.549607,-148.041188,3404.947333,-78448.178995
251.552192,-740.205942,5773.606348,-79520.712692
251.554777,-296.082377,6069.688724,-77682.083497
251.557362,-1184.329507,10066.800811,-79214.274493
251.559947,-444.123565,-296.082377,-81512.560987
251.562532,-148.041188,444.123565,-79214.274493
251.565118,740.205942,-4737.318029,-79673.931792
251.567703,-1184.329507,592.164754,-77222.426198
251.570288,296.082377,-148.041188,-78601.398095
251.572873,-1036.288319,-6957.935855,-79673.931792
251.575458,592.164754,-9178.553681,-78448.178995
251.578044,296.082377,-10362.883188,-79214.274493
251.580629,-1628.453072,-10658.965565,-78601.398095
251.583214,0.000000,-9030.512492,-80746.465489
251.585799,-1776.494261,-5181.441594,-79367.493593
251.588384,888.247130,-2960.823768,-79061.055394
251.590969,-1184.329507,0.000000,-77682.083497
251.593555,296.082377,-6217.729913,-78141.740796
251.596140,2072.576638,-5181.441594,-77222.426198
251.598725,-1184.329507,-12287.418637,-78141.740796
251.601310,-1924.535449,-13471.748144,-80286.808190
251.603895,-148.041188,7994.224174,-77835.302597
251.606480,-296.082377,-13175.665768,-79980.369991
251.609066,-888.247130,148.041188,-80593.246390
251.611651,1036.288319,-13027.624579,-77069.207099
251.614236,-2072.576638,-2072.576638,-77375.645298
251.616821,888.247130,-14211.954086,-76915.987999
251.619405,-740.205942,-7550.100608,-77528.864398
251.621988,-1332.370696,-8438.347739,-79367.493593
251.624571,-888.247130,-3404.947333,-79673.931792
251.627155,-592.164754,-4885.359217,-80593.246390
251.629738,740.205942,-5033.400406,-78448.178995
251.632321,-1332.370696,-5033.400406,-78294.959896
251.634904,-888.247130,1480.411884,-77528.864398
251.637488,-740.205942,5625.565159,-78754.617194
251.640071,888.247130,4885.359217,-78294.959896
251.642654,296.082377,7550.100608,-78294.959896
251.645238,-1036.288319,6069.688724,-78754.617194
251.647821,-740.205942,3108.864956,-78907.836294
251.650404,148.041188,444.123565,-79367.493593
251.652988,-592.164754,-740.205942,-78448.178995
251.655571,148.041188,148.041188,-78448.178995
251.658154,-1332.370696,1628.453072,-77222.426198
251.660738,-1480.411884,-296.082377,-78907.836294
251.663321,-888.247130,10214.842000,-79367.493593
251.665904,740.205942,740.205942,-80133.589091
251.668488,740.205942,6069.688724,-78448.178995
251.671071,-444.123565,-2368.659014,-78907.836294
251.673654,-1776.494261,-444.123565,-79214.274493
251.676238,-148.041188,3404.947333,-79827.150892
251.678821,740.205942,4441.235652,-79980.369991
251.681404,444.123565,8586.388927,-79673.931792
251.683988,-1480.411884,6217.729913,-78448.178995
251.686571,-592.164754,7254.018232,-78141.740796
251.689154,-444.123565,-296.082377,-78754.617194
251.691738,-296.082377,444.123565,-78294.959896
251.694321,-296.082377,-2368.659014,-79367.493593
251.696904,-1332.370696,-740.205942,-79367.493593
251.699488,-444.123565,-6661.853478,-79214.274493
251.702070,592.164754,-6809.894666,-78754.617194
251.704652,148.041188,-12139.377449,-78754.617194
251.707234,740.205942,-9474.636058,-78601.398095
251.709817,-1184.329507,-9030.512492,-79520.712692
251.712399,0.000000,-4293.194464,-79061.055394
251.714981,-444.123565,-2960.823768,-78907.836294
251.717564,740.205942,-2812.782580,-78448.178995
251.720146,444.123565,-4589.276840,-78907.836294
251.722728,592.164754,-1036.288319,-78754.617194
251.725310,0.000000,-1036.288319,-76149.892501
251.727893,740.205942,-10510.924376,-79061.055394
251.730475,-1480.411884,-12287.418637,-82891.532884
251.733057,-1036.288319,-8290.306550,-81052.903688
251.735639,296.082377,-2220.617826,-75843.454302
251.738222,-592.164754,-4589.276840,-74924.139704
251.740804,-2072.576638,-4737.318029,-79214.274493
251.743386,740.205942,-7698.141797,-78141.740796
251.745968,-148.041188,-9770.718434,-78754.617194
251.748551,-2072.576638,-14656.077652,-82125.437386
251.751133,-1036.288319,-5033.400406,-79214.274493
251.753715,296.082377,-3404.947333,-78448.178995
251.756298,1184.329507,-1628.453072,-77682.083497
251.758880,-592.164754,-4441.235652,-78907.836294
251.761462,-1036.288319,-444.123565,-79214.274493
251.764044,-444.123565,3552.988522,-80133.589091
251.766627,-148.041188,5329.482782,-79520.712692
251.769209,0.000000,7550.100608,-79061.055394
251.771791,148.041188,5477.523971,-77835.302597
251.774373,-2664.741391,2664.741391,-78448.178995
251.776956,-740.205942,-2368.659014,-79980.369991
251.779538,-148.041188,-1184.329507,-79061.055394
251.782120,-148.041188,-1036.288319,-78448.178995
251.784702,-1184.329507,740.205942,-78294.959896
251.787285,-1332.370696,6069.688724,-81052.903688
251.789867,-1332.370696,1776.494261,-80440.027290
251.792449,1036.288319,-444.123565,-78141.740796
251.795032,444.123565,3404.947333,-76915.987999
251.797614,-1332.370696,3108.864956,-79673.931792
251.800196,-888.247130,1036.288319,-80286.808190
251.802778,-148.041188,-592.164754,-78448.178995
251.805350,1036.288319,4885.359217,-78448.178995
251.807930,-296.082377,6365.771101,-79367.493593
251.810510,-1480.411884,8734.430116,-79367.493593
251.813090,-444.123565,2960.823768,-79367.493593
251.815670,592.164754,148.041188,-78754.617194
251.818249,296.082377,-2664.741391,-80286.808190
251.820829,-740.205942,-2368.659014,-78601.398095
251.823409,-740.205942,-2664.741391,-79367.493593
251.825989,-296.082377,-8734.430116,-79061.055394
251.828569,296.082377,-10066.800811,-78907.836294
251.831149,148.041188,-9918.759623,-78448.178995
251.833728,-592.164754,-9622.677246,-79673.931792
251.836308,-592.164754,-8734.430116,-79061.055394
251.838888,148.041188,-6365.771101,-78907.836294
251.841468,-592.164754,-2812.782580,-79214.274493
251.844048,-740.205942,-444.123565,-78601.398095
251.846628,0.000000,-5329.482782,-77375.645298
251.849207,-1776.494261,-1924.535449,-78754.617194
251.851787,-740.205942,-15544.324782,-80593.246390
251.854367,-592.164754,-3997.112087,-79520.712692
251.856947,-444.123565,-7105.977043,-78141.740796
251.859527,296.082377,-9918.759623,-78907.836294
251.862106,-3404.947333,-6069.688724,-80286.808190
251.864686,-296.082377,-6069.688724,-79980.369991
251.867266,-1332.370696,-3701.029710,-79520.712692
251.869846,444.123565,-12287.418637,-78907.836294
251.872426,-444.123565,-7698.141797,-77222.426198
251.875006,-592.164754,-12139.377449,-78754.617194
251.877585,-2072.576638,148.041188,-78754.617194
251.880165,1628.453072,-7254.018232,-79827.150892
251.882745,-1184.329507,-2072.576638,-79367.493593
251.885325,-1036.288319,-3108.864956,-78601.398095
251.887905,-148.041188,7994.224174,-78754.617194
251.890485,-148.041188,6217.729913,-79673.931792
251.893064,1184.329507,8142.265362,-79367.493593
251.895644,-1184.329507,4145.153275,-77835.302597
251.898224,296.082377,3849.070898,-78141.740796
251.900804,-2664.741391,1628.453072,-78754.617194
251.903384,148.041188,-1628.453072,-79827.150892
251.905963,-148.041188,-2220.617826,-79367.493593
251.908542,-592.164754,740.205942,-77988.521696
251.911120,-2368.659014,9326.594869,-80133.589091
251.913698,-444.123565,4737.318029,-80593.246390
251.916276,1184.329507,1924.535449,-79520.712692
251.918854,444.123565,-3256.906145,-79367.493593
251.921432,-1184.329507,-444.123565,-78601.398095
251.924010,-1332.370696,6513.812290,-79367.493593
251.926588,-148.041188,4293.194464,-79827.150892
251.929166,-148.041188,10066.800811,-78907.836294
251.931744,-444.123565,5033.400406,-80746.465489
251.934322,-888.247130,9770.718434,-78141.740796
251.936900,-888.247130,-1184.329507,-79214.274493
251.939478,740.205942,740.205942,-77835.302597
251.942056,740.205942,-1776.494261,-78448.178995
251.944634,-1924.535449,3701.029710,-79367.493593
251.947212,296.082377,-3701.029710,-79827.150892
251.949790,-1480.411884,-7846.182985,-78601.398095
251.952369,-296.082377,-11843.295072,-79214.274493
251.954947,444.123565,-9326.594869,-79061.055394
251.957525,-148.041188,-11547.212695,-79673.931792
251.960103,444.123565,-6069.688724,-77988.521696
251.962681,-1332.370696,-6809.894666,-79673.931792
251.965259,-444.123565,-148.041188,-79061.055394
251.967837,-444.123565,-1332.370696,-79520.712692
251.970415,296.082377,-4885.359217,-79520.712692
251.972993,740.205942,-11991.336260,-78601.398095
251.975571,-296.082377,-4441.235652,-76303.111601
251.978149,-1332.370696,-3404.947333,-80286.808190
251.980727,-444.123565,-7846.182985,-80593.246390
251.983305,0.000000,-9030.512492,-79061.055394
251.985883,-148.041188,-5921.647536,-76915.987999
251.988461,-1776.494261,-4293.194464,-78601.398095
251.991039,888.247130,-6365.771101,-79061.055394
251.993617,740.205942,-9030.512492,-77682.083497
251.996196,0.000000,-10066.800811,-79214.274493
251.998774,-2664.741391,-5625.565159,-80286.808190
252.001352,444.123565,-5329.482782,-79673.931792
252.003930,-1776.494261,-4885.359217,-78294.959896
252.006508,592.164754,-3849.070898,-78601.398095
252.009086,-1776.494261,3701.029710,-78754.617194
252.011622,-740.205942,6661.853478,-79673.931792
252.014159,-740.205942,6217.729913,-79520.712692
252.016696,1332.370696,5625.565159,-79061.055394
252.019232,-444.123565,5921.647536,-77835.302597
252.021769,-1480.411884,3701.029710,-78754.617194
252.024305,-1036.288319,-1332.370696,-78601.398095
252.026842,592.164754,-1776.494261,-78907.836294
252.029379,888.247130,1036.288319,-78907.836294
252.031915,-1184.329507,2960.823768,-78601.398095
252.034452,-1480.411884,7698.141797,-77528.864398
252.036989,-444.123565,-2664.741391,-79980.369991
252.039525,1184.329507,7105.977043,-79061.055394
252.042062,-444.123565,-1036.288319,-80593.246390
252.044598,-1628.453072,2516.700203,-81512.560987
252.047135,-1036.288319,1332.370696,-78754.617194
252.049672,740.205942,3108.864956,-77682.083497
252.052208,1332.370696,5921.647536,-77835.302597
252.054745,-888.247130,9178.553681,-77682.083497
252.057281,-296.082377,6365.771101,-76149.892501
252.059818,-740.205942,-740.205942,-79673.931792
252.062355,-444.123565,-1480.411884,-78907.836294
252.064891,-1332.370696,-444.123565,-80133.589091
252.067428,-296.082377,296.082377,-78294.959896
252.069965,-1184.329507,-9622.677246,-77835.302597
252.072501,740.205942,-10214.842000,-78754.617194
252.075038,-148.041188,-11991.336260,-78294.959896
252.077574,-1184.329507,-9770.718434,-79061.055394
252.080111,-1184.329507,-10807.006753,-79367.493593
252.082648,-444.123565,-5477.523971,-79520.712692
252.085184,296.082377,-2072.576638,-78907.836294
252.087721,-1628.453072,-444.123565,-78754.617194
252.090257,296.082377,-3404.947333,-79520.712692
252.092794,592.164754,-12731.542202,-76609.549800
252.095331,148.041188,-13323.706956,-80133.589091
252.097867,-1480.411884,-7698.141797,-76609.549800
252.100404,296.082377,-7402.059420,-78141.740796
252.102941,-888.247130,-1628.453072,-76303.111601
252.105477,296.082377,-6661.853478,-81359.341888
252.108014,-1480.411884,-4293.194464,-79520.712692
252.110550,296.082377,-13471.748144,-78448.178995
252.113055,-444.123565,-8142.265362,-77835.302597
252.115561,296.082377,-14656.077652,-78448.178995
252.118066,-740.205942,-1480.411884,-76915.987999
252.120571,-148.041188,-5477.523971,-79061.055394
252.123076,-444.123565,-4737.318029,-80286.808190
252.125581,444.123565,-7254.018232,-79367.493593
252.128086,-444.123565,5477.523971,-79214.274493
252.130591,-1480.411884,6513.812290,-79827.150892
252.133096,444.123565,7254.018232,-79061.055394
252.135602,-296.082377,6513.812290,-78754.617194
252.138107,296.082377,5329.482782,-78601.398095
252.140612,-1480.411884,888.247130,-79673.931792
252.143117,-592.164754,-1480.411884,-78294.959896
252.145622,296.082377,-4885.359217,-78601.398095
252.148127,-296.082377,3256.906145,-79520.712692
252.150632,-888.247130,-592.164754,-79520.712692
252.153137,-740.205942,4145.153275,-78448.178995
252.155643,740.205942,2368.659014,-79061.055394
252.158148,1036.288319,3701.029710,-77528.864398
252.160653,-740.205942,5773.606348,-79520.712692
252.163158,-888.247130,1480.411884,-81052.903688
252.165663,-740.205942,1924.535449,-77988.521696
252.168168,1036.288319,1924.535449,-78601.398095
252.170673,-592.164754,9326.594869,-79061.055394
252.173178,-444.123565,8586.388927,-78907.836294
252.175684,-148.041188,6069.688724,-78448.178995
252.178189,740.205942,-1036.288319,-79061.055394
252.180694,-444.123565,1332.370696,-79061.055394
252.183199,-444.123565,-592.164754,-80133.589091
252.185704,-1036.288319,-7550.100608,-79214.274493
252.188209,1036.288319,-11399.171507,-78448.178995
252.190714,0.000000,-13767.830521,-78754.617194
252.193219,148.041188,-9474.636058,-79673.931792
252.195725,-1184.329507,-9622.677246,-79520.712692
252.198230,296.082377,-3997.112087,-78448.178995
252.200735,-888.247130,-4145.153275,-79673.931792
252.203240,-296.082377,-1480.411884,-79214.274493
252.205745,-740.205942,-2220.617826,-79673.931792
252.208250,148.041188,-4441.235652,-77375.645298
252.210755,-148.041188,-14656.077652,-78754.617194
252.213274,-296.082377,-5181.441594,-78294.959896
252.215793,-888.247130,-7698.141797,-79520.712692
252.218312,-1036.288319,-9178.553681,-78907.836294
252.220831,148.041188,-5921.647536,-77375.645298
252.223350,-444.123565,-7994.224174,-79367.493593
252.225869,-2072.576638,-5033.400406,-79827.150892
252.228388,-148.041188,-9474.636058,-78294.959896
252.230907,0.000000,-10066.800811,-77375.645298
252.233426,-1184.329507,-7550.100608,-78448.178995
252.235945,-148.041188,-5181.441594,-78907.836294
252.238464,-296.082377,-5181.441594,-77682.083497
252.240983,-148.041188,-3256.906145,-78754.617194
252.243502,296.082377,4145.153275,-79061.055394
252.246021,0.000000,7402.059420,-80593.246390
252.248540,-1924.535449,8438.347739,-79520.712692
252.251059,444.123565,8290.306550,-78141.740796
252.253578,444.123565,4441.235652,-77682.083497
252.256097,-1332.370696,3256.906145,-78141.740796
252.258616,-592.164754,-1480.411884,-78907.836294
252.261135,888.247130,-2220.617826,-78907.836294
252.263654,740.205942,-2368.659014,-77222.426198
252.266173,-2368.659014,5921.647536,-80593.246390
252.268692,-740.205942,6661.853478,-80440.027290
252.271211,-592.164754,1628.453072,-79520.712692
252.273730,296.082377,-4885.359217,-78907.836294
252.276249,-148.041188,1628.453072,-78294.959896
252.278768,-740.205942,444.123565,-76303.111601
252.281287,-1628.453072,2664.741391,-79367.493593
252.283806,-1036.288319,6809.894666,-78907.836294
252.286325,-444.123565,5329.482782,-79673.931792
252.288844,-740.205942,5181.441594,-78907.836294
252.291363,-1184.329507,3256.906145,-77375.645298
252.293882,-888.247130,-1332.370696,-78601.398095
252.296401,592.164754,2516.700203,-77988.521696
252.298920,-2072.576638,148.041188,-77988.521696
252.301439,-2072.576638,-7550.100608,-79673.931792
252.303958,592.164754,-11103.089130,-79061.055394
252.306477,-444.123565,-14656.077652,-78754.617194
252.308996,592.164754,-12139.377449,-79061.055394
252.311515,-1184.329507,-9326.594869,-79520.712692
252.314046,-1184.329507,-4145.153275,-78907.836294
252.316577,-444.123565,-4145.153275,-78141.740796
252.319108,740.205942,-592.164754,-78601.398095
252.321639,-444.123565,-4145.153275,-80593.246390
252.324170,592.164754,-10658.965565,-77528.864398
252.326700,-592.164754,-148.041188,-75230.577904
252.329231,-148.041188,-4885.359217,-79827.150892
252.331762,-592.164754,-13027.624579,-83810.847481
252.334293,1036.288319,-6513.812290,-77375.645298
252.336824,-888.247130,-11547.212695,-76303.111601
252.339355,-444.123565,-1332.370696,-79061.055394
252.341885,-592.164754,-9030.512492,-78601.398095
252.344416,296.082377,-4589.276840,-78448.178995
252.346947,-444.123565,-11695.253884,-79980.369991
252.349478,-148.041188,-6217.729913,-79827.150892
252.352009,-148.041188,-9030.512492,-79673.931792
252.354540,148.041188,-5329.482782,-78907.836294
252.357070,-1332.370696,-2516.700203,-78448.178995
252.359601,1036.288319,8142.265362,-79061.055394
252.362132,-296.082377,8142.265362,-79061.055394
252.364663,1184.329507,11399.171507,-78601.398095
252.367194,-1480.411884,5181.441594,-80133.589091
252.369725,444.123565,6809.894666,-78294.959896
252.372255,-592.164754,-2664.741391,-78448.178995
252.374786,0.000000,-888.247130,-78754.617194
252.377317,1480.411884,-2812.782580,-78907.836294
252.379848,296.082377,2516.700203,-77835.302597
252.382379,148.041188,7254.018232,-77222.426198
252.384910,-740.205942,1184.329507,-80899.684589
252.387440,592.164754,5329.482782,-80746.465489
252.389971,-1184.329507,-1184.329507,-78907.836294
252.392502,592.164754,3108.864956,-81206.122788
252.395033,-740.205942,3256.906145,-77682.083497
252.397564,-148.041188,4145.153275,-77375.645298
252.400095,-740.205942,5477.523971,-79214.274493
252.402625,888.247130,6661.853478,-77682.083497
252.405156,740.205942,6365.771101,-78141.740796
252.407687,-148.041188,-1332.370696,-79367.493593
252.410218,-148.041188,5181.441594,-79520.712692
252.412749,-296.082377,-1776.494261,-79214.274493
252.415289,-888.247130,-1924.535449,-78294.959896
252.417828,148.041188,-14656.077652,-78754.617194
252.420368,148.041188,-9918.759623,-77222.426198
252.422908,-296.082377,-13323.706956,-78907.836294
252.425448,-444.123565,-9474.636058,-79214.274493
252.427988,-592.164754,-8586.388927,-80133.589091
252.430528,-740.205942,-1628.453072,-79214.274493
252.433068,-1184.329507,1036.288319,-79673.931792
252.435607,-592.164754,444.123565,-79367.493593
252.438147,-296.082377,-6513.812290,-78294.959896
252.440687,-1184.329507,-14508.036463,-79520.712692
252.443227,-888.247130,-8142.265362,-77069.207099
252.445767,444.123565,-3256.906145,-76609.549800
252.448307,-2220.617826,-7254.018232,-78907.836294
252.450847,1036.288319,-7550.100608,-81206.122788
252.453386,-740.205942,-7994.224174,-78141.740796
252.455926,-592.164754,-5477.523971,-78294.959896
252.458466,-2072.576638,-8290.306550,-79520.712692
252.461006,296.082377,-8882.471304,-80286.808190
252.463546,-592.164754,-6069.688724,-78601.398095
252.466086,-1480.411884,-6069.688724,-79214.274493
252.468626,-1184.329507,-8290.306550,-79673.931792
252.471165,-444.123565,-3404.947333,-78448.178995
252.473705,-296.082377,6513.812290,-78294.959896
252.476245,-1036.288319,8882.471304,-79980.369991
252.478785,-296.082377,11399.171507,-78754.617194
252.481325,148.041188,7254.018232,-78294.959896
252.483865,-1036.288319,5625.565159,-78448.178995
252.486405,-1628.453072,-2220.617826,-79980.369991
252.488944,-444.123565,-1776.494261,-78448.178995
252.491484,-888.247130,-5181.441594,-78754.617194
252.494024,-1480.411884,-2960.823768,-80133.589091
252.496564,-444.123565,-1924.535449,-81052.903688
252.499104,740.205942,14656.077652,-74924.139704
252.501644,-1184.329507,-5625.565159,-78141.740796
252.504184,-148.041188,1776.494261,-77682.083497
252.506723,-1332.370696,5625.565159,-78294.959896
252.509263,-1480.411884,4293.194464,-80286.808190
252.511803,-592.164754,2220.617826,-79214.274493
252.514343,-444.123565,2812.782580,-78294.959896
252.516891,-888.247130,5477.523971,-79827.150892
252.519439,-740.205942,4737.318029,-79520.712692
252.521986,0.000000,2516.700203,-78754.617194
252.524534,148.041188,-1184.329507,-78907.836294
252.527082,-1332.370696,4145.153275,-78907.836294
252.529630,-296.082377,-8438.347739,-79673.931792
252.532177,-592.164754,-10362.883188,-77835.302597
252.534725,444.123565,-18949.272115,-78754.617194
252.537273,740.205942,-13323.706956,-79061.055394
252.539820,-1628.453072,-11695.253884,-79367.493593
252.542368,-592.164754,-1924.535449,-79214.274493
252.544916,-444.123565,-2220.617826,-78601.398095
252.547464,296.082377,592.164754,-79214.274493
252.550011,1628.453072,-2516.700203,-77375.645298
252.552559,-2072.576638,-10510.924376,-79061.055394
252.555107,-592.164754,-8438.347739,-80593.246390
252.557655,-296.082377,-8142.265362,-77222.426198
252.560202,148.041188,-3256.906145,-79367.493593
252.562750,-296.082377,-8290.306550,-77528.864398
252.565298,296.082377,-4885.359217,-75690.235202
252.567846,148.041188,-8882.471304,-77069.207099
252.570393,-444.123565,-8290.306550,-79367.493593
252.572941,444.123565,-11547.212695,-81206.122788
252.575489,444.123565,-4441.235652,-79367.493593
252.578037,740.205942,-8586.388927,-79214.274493
252.580584,-148.041188,-6513.812290,-79061.055394
252.583132,-1036.288319,-6513.812290,-80133.589091
252.585680,1184.329507,4737.318029,-79367.493593
252.588228,296.082377,7550.100608,-79520.712692
252.590775,1480.411884,11547.212695,-77988.521696
252.593323,-592.164754,8142.265362,-79214.274493
252.595871,-888.247130,6957.935855,-77682.083497
252.598418,-296.082377,148.041188,-79827.150892
252.600966,592.164754,-1036.288319,-77988.521696
252.603514,1628.453072,-5181.441594,-79061.055394
252.606062,444.123565,444.123565,-77835.302597
252.608609,-592.164754,6957.935855,-76456.330700
252.611157,-740.205942,740.205942,-78907.836294
252.613705,592.164754,7698.141797,-79367.493593
252.616253,296.082377,2368.659014,-79980.369991
252.618770,-444.123565,5181.441594,-79980.369991
252.621287,-148.041188,1036.288319,-80286.808190
252.623804,-592.164754,2960.823768,-78754.617194
252.626321,-296.082377,4293.194464,-78141.740796
252.628838,296.082377,7402.059420,-78448.178995
252.631355,-148.041188,5181.441594,-79061.055394
252.633873,-148.041188,-444.123565,-78448.178995
252.636390,296.082377,3552.988522,-78601.398095
252.638907,-1184.329507,-148.041188,-79367.493593
252.641424,-444.123565,-7105.977043,-79520.712692
252.643941,444.123565,-13619.789333,-77988.521696
252.646458,-592.164754,-13619.789333,-77069.207099
252.648975,-148.041188,-14952.160028,-78907.836294
252.651492,-888.247130,-10214.842000,-79520.712692
252.654010,-1332.370696,-4145.153275,-79827.150892
252.656527,444.123565,-2664.741391,-79367.493593
252.659044,-296.082377,1036.288319,-78601.398095
252.661561,-740.205942,-888.247130,-79214.274493
252.664078,0.000000,1924.535449,-76303.111601
252.666595,148.041188,-9622.677246,-77835.302597
252.669112,148.041188,-13323.706956,-81512.560987
252.671629,296.082377,-11399.171507,-79520.712692
252.674147,-296.082377,-13323.706956,-78141.740796
252.676664,-2072.576638,-10807.006753,-80593.246390
252.679181,-740.205942,-2960.823768,-80440.027290
252.681698,-444.123565,-5033.400406,-78294.959896
252.684215,296.082377,-5773.606348,-76456.330700
252.686732,-444.123565,-7846.182985,-77682.083497
252.689249,148.041188,-8734.430116,-80593.246390
252.691766,0.000000,-11251.130318,-78907.836294
252.694284,-2664.741391,-3108.864956,-78601.398095
252.696801,0.000000,6217.729913,-78907.836294
252.699318,592.164754,9770.718434,-80593.246390
252.701835,1332.370696,12139.377449,-79673.931792
252.704352,-1332.370696,9770.718434,-79367.493593
252.706869,-296.082377,6661.853478,-78294.959896
252.709386,-888.247130,888.247130,-79367.493593
252.711903,-444.123565,-2516.700203,-78294.959896
252.714421,444.123565,-1628.453072,-79673.931792
252.716938,444.123565,0.000000,-76303.111601
252.719468,-3108.864956,-10510.924376,-81206.122788
252.721997,444.123565,17468.860231,-77682.083497
252.724527,-444.123565,1628.453072,-79061.055394
252.727057,1184.329507,2516.700203,-79980.369991
252.729587,-1184.329507,5181.441594,-77069.207099
252.732117,-1036.288319,-888.247130,-77528.864398
252.734646,-740.205942,5477.523971,-79673.931792
252.737176,-592.164754,3552.988522,-78601.398095
252.739706,-740.205942,9918.759623,-77835.302597
252.742236,740.205942,-2072.576638,-79980.369991
252.744766,-1036.288319,4293.194464,-78141.740796
252.747295,296.082377,-1184.329507,-79367.493593
252.749825,-148.041188,3404.947333,-77835.302597
252.752355,0.000000,-10658.965565,-77528.864398
252.754885,148.041188,-11695.253884,-78448.178995
252.757415,0.000000,-15396.283594,-78294.959896
252.759945,-1776.494261,-13027.624579,-79673.931792
252.762474,-592.164754,-11251.130318,-79520.712692
252.765004,148.041188,-4145.153275,-79673.931792
252.767534,0.000000,148.041188,-78601.398095
252.770064,888.247130,-1332.370696,-77988.521696
252.772594,0.000000,-6365.771101,-77069.207099
252.775123,-888.247130,-4293.194464,-77528.864398
252.777653,-888.247130,-6513.812290,-80133.589091
252.780183,-444.123565,-7550.100608,-79367.493593
252.782713,-1036.288319,-14063.912898,-80593.246390
252.785243,-296.082377,-7402.059420,-77682.083497
252.787773,-592.164754,-9770.718434,-77528.864398
252.790302,-1036.288319,-3256.906145,-78601.398095
252.792832,1036.288319,-7105.977043,-79214.274493
252.795362,0.000000,-5921.647536,-76303.111601
252.797892,1332.370696,-7254.018232,-79214.274493
252.800422,-1184.329507,-9326.594869,-80593.246390
252.802951,-740.205942,-5181.441594,-79520.712692
252.805481,-888.247130,-592.164754,-79214.274493
252.808011,888.247130,8142.265362,-77682.083497
252.810541,444.123565,9918.759623,-79673.931792
252.813071,-1628.453072,12139.377449,-78601.398095
252.815600,148.041188,6513.812290,-77375.645298
252.818130,-740.205942,2072.576638,-78141.740796
252.820667,-592.164754,-3552.988522,-79673.931792
252.823208,-592.164754,-2072.576638,-79980.369991
252.825748,740.205942,-444.123565,-77069.207099
252.828289,-888.247130,3256.906145,-78601.398095
252.830829,-1924.535449,-2220.617826,-81359.341888
252.833370,592.164754,5773.606348,-80286.808190
252.835911,-444.123565,6217.729913,-77069.207099
252.838451,-296.082377,3849.070898,-81206.122788
252.840992,-592.164754,5329.482782,-79520.712692
252.843532,-148.041188,2812.782580,-79520.712692
252.846073,-2072.576638,3849.070898,-79214.274493
252.848613,-444.123565,3849.070898,-78601.398095
252.851154,0.000000,1628.453072,-79061.055394
252.853695,-444.123565,740.205942,-78754.617194
252.856235,-1036.288319,3849.070898,-78907.836294
252.858776,-888.247130,444.123565,-78448.178995
252.861316,-888.247130,-9474.636058,-79061.055394
252.863857,-740.205942,-14211.954086,-77375.645298
252.866397,-1184.329507,-14804.118840,-78907.836294
252.868938,-1628.453072,-14211.954086,-79520.712692
252.871478,-888.247130,-10955.047942,-78907.836294
252.874019,-1480.411884,-4441.235652,-79367.493593
252.876560,148.041188,1036.288319,-79214.274493
252.879100,592.164754,-888.247130,-78907.836294
252.881641,-740.205942,1924.535449,-80593.246390
252.884181,-740.205942,-12435.459826,-81206.122788
252.886722,-444.123565,-12435.459826,-78294.959896
252.889262,-148.041188,-7402.059420,-77222.426198
252.891803,740.205942,-8438.347739,-75996.673402
252.894344,-1184.329507,-10955.047942,-80286.808190
252.896884,-1480.411884,-3404.947333,-75690.235202
252.899425,-1332.370696,-7254.018232,-79980.369991
252.901974,-296.082377,-5181.441594,-80899.684589
252.904523,0.000000,-9474.636058,-79214.274493
252.907072,592.164754,-3404.947333,-77835.302597
252.909621,-740.205942,-9918.759623,-77988.521696
252.912170,-2220.617826,-1628.453072,-77375.645298
252.914719,1332.370696,-2812.782580,-80593.246390
252.917268,740.205942,8734.430116,-78907.836294
252.919817,1184.329507,8438.347739,-78754.617194
252.922366,-2220.617826,14063.912898,-79673.931792
252.924915,-740.205942,7254.018232,-79673.931792
252.927464,-1036.288319,5329.482782,-77835.302597
252.930013,592.164754,-4885.359217,-79367.493593
252.932562,296.082377,-1480.411884,-78294.959896
252.935111,148.041188,-4145.153275,-77528.864398
252.937660,-740.205942,-9622.677246,-79061.055394
252.940209,444.123565,6957.935855,-78601.398095
252.942758,-148.041188,12583.501014,-75996.673402
252.945307,-1480.411884,2960.823768,-82738.313784
252.947856,1036.288319,10510.924376,-80133.589091
252.950406,-296.082377,-296.082377,-77682.083497
252.952955,-296.082377,8290.306550,-79367.493593
252.955504,296.082377,-2664.741391,-79061.055394
252.958053,0.000000,3404.947333,-79061.055394
252.960602,-740.205942,-1776.494261,-79061.055394
252.963151,1480.411884,5033.400406,-77835.302597
252.965700,-888.247130,2072.576638,-78294.959896
252.968249,-740.205942,-5033.400406,-79520.712692
252.970798,-148.041188,-11991.336260,-78754.617194
252.973347,-148.041188,-14508.036463,-78601.398095
252.975896,-444.123565,-13767.830521,-78754.617194
252.978445,-444.123565,-13027.624579,-79673.931792
252.980994,-740.205942,-3256.906145,-79061.055394
252.983543,-1036.288319,-3256.906145,-79214.274493
252.986092,1332.370696,1924.535449,-78294.959896
252.988641,-592.164754,-1184.329507,-78907.836294
252.991190,444.123565,-2220.617826,-78907.836294
252.993739,-444.123565,-8438.347739,-79061.055394
252.996288,-148.041188,-9474.636058,-80133.589091
252.998837,444.123565,-10955.047942,-81052.903688
253.001386,-592.164754,-9326.594869,-78141.740796
253.003942,1332.370696,-10214.842000,-77528.864398
253.006497,-1480.411884,-5181.441594,-78141.740796
253.009052,-296.082377,-8438.347739,-81052.903688
253.011607,-296.082377,-6069.688724,-78907.836294
253.014163,1332.370696,-7846.182985,-78448.178995
253.016718,-2072.576638,-9474.636058,-77682.083497
253.019273,-1332.370696,-3552.988522,-78294.959896
253.021828,296.082377,5625.565159,-78754.617194
253.024384,1628.453072,6661.853478,-79214.274493
253.026939,-592.164754,9030.512492,-78294.959896
253.029494,0.000000,9474.636058,-78601.398095
253.032049,-1924.535449,7550.100608,-79061.055394
253.034605,-444.123565,1184.329507,-78907.836294
253.037160,444.123565,-3849.070898,-79061.055394
253.039715,1480.411884,-5033.400406,-77988.521696
253.042270,-888.247130,-3552.988522,-77069.207099
253.044826,-740.205942,2072.576638,-79214.274493
253.047381,-740.205942,4293.194464,-78448.178995
253.049936,-296.082377,148.041188,-80593.246390
253.052492,-740.205942,8734.430116,-77528.864398
253.055047,592.164754,2812.782580,-78448.178995
253.057602,-1628.453072,5033.400406,-80899.684589
253.060157,-592.164754,2664.741391,-79673.931792
253.062713,444.123565,5477.523971,-78601.398095
253.065268,-1036.288319,2960.823768,-79214.274493
253.067823,-148.041188,-296.082377,-79367.493593
253.070378,-740.205942,1480.411884,-78448.178995
253.072934,148.041188,-444.123565,-80593.246390
253.075489,-2516.700203,-4589.276840,-78754.617194
253.078044,740.205942,-12435.459826,-78294.959896
253.080599,-1776.494261,-15100.201217,-77528.864398
253.083155,444.123565,-16432.571912,-77988.521696
253.085710,-3108.864956,-11103.089130,-79367.493593
253.088265,-296.082377,-5921.647536,-80286.808190
253.090820,-1924.535449,-1332.370696,-77988.521696
253.093376,592.164754,1036.288319,-80593.246390
253.095931,-444.123565,-888.247130,-78907.836294
253.098486,-888.247130,-9770.718434,-78448.178995
253.101041,-2516.700203,-8734.430116,-78141.740796
253.103597,-148.041188,-9918.759623,-78141.740796
253.106157,2368.659014,-7254.018232,-75996.673402
253.108718,-1628.453072,-9622.677246,-78754.617194
253.111279,-1776.494261,-7550.100608,-80440.027290
253.113839,-888.247130,-9178.553681,-79673.931792
253.116400,740.205942,-7550.100608,-78448.178995
253.118960,0.000000,-7402.059420,-78141.740796
253.121521,1628.453072,-4885.359217,-77069.207099
253.124082,-1776.494261,-10362.883188,-77375.645298
253.126642,-296.082377,148.041188,-77528.864398
253.129203,-148.041188,4589.276840,-80440.027290
253.131764,444.123565,9474.636058,-80899.684589
253.134324,592.164754,10066.800811,-80133.589091
253.136885,-296.082377,10066.800811,-79061.055394
253.139446,-296.082377,10214.842000,-78448.178995
253.142006,-148.041188,2516.700203,-78448.178995
253.144567,-592.164754,-3552.988522,-78754.617194
253.147127,740.205942,-3849.070898,-78448.178995
253.149688,-148.041188,-2516.700203,-77069.207099
253.152249,-1480.411884,7105.977043,-78448.178995
253.154809,-2368.659014,2516.700203,-81972.218286
253.157370,2960.823768,13471.748144,-78141.740796
253.159931,-444.123565,1184.329507,-76609.549800
253.162491,-888.247130,10658.965565,-79673.931792
253.165052,296.082377,3701.029710,-77835.302597
253.167613,-888.247130,5181.441594,-79061.055394
253.170173,296.082377,1480.411884,-79827.150892
253.172734,444.123565,3997.112087,-79214.274493
253.175294,-296.082377,148.041188,-79520.712692
253.177855,-1036.288319,2664.741391,-78448.178995
253.180416,1036.288319,-1628.453072,-79673.931792
253.182976,0.000000,-6069.688724,-77682.083497
253.185537,-444.123565,-11251.130318,-77835.302597
253.188098,-296.082377,-15840.407159,-78141.740796
253.190658,-888.247130,-14359.995275,-78601.398095
253.193219,0.000000,-10658.965565,-79673.931792
253.195780,-888.247130,-2368.659014,-80593.246390
253.198340,-592.164754,-296.082377,-78141.740796
253.200901,1036.288319,444.123565,-76915.987999
253.203461,-1776.494261,-8586.388927,-80593.246390
253.206022,-888.247130,-7402.059420,-80133.589091
253.208587,-444.123565,-11547.212695,-80286.808190
253.211152,-740.205942,-6957.935855,-77069.207099
253.213717,0.000000,-9326.594869,-80133.589091
253.216282,-444.123565,-7402.059420,-77682.083497
253.218847,-592.164754,-11991.336260,-77988.521696
253.221412,-1480.411884,-7994.224174,-78754.617194
253.223977,-740.205942,-9178.553681,-79520.712692
253.226543,1184.329507,-8290.306550,-78601.398095
253.229108,-1332.370696,-6069.688724,-78907.836294
253.231673,-1480.411884,-2072.576638,-78754.617194
253.234238,296.082377,1480.411884,-79980.369991
253.236803,-1184.329507,7402.059420,-79214.274493
253.239368,1628.453072,8734.430116,-78754.617194
253.241933,-592.164754,10658.965565,-78601.398095
253.244498,-592.164754,7402.059420,-78907.836294
253.247063,-592.164754,5181.441594,-79520.712692
253.249628,444.123565,-1036.288319,-78294.959896
253.252193,-296.082377,-1628.453072,-80133.589091
253.254758,296.082377,-3997.112087,-77375.645298
253.257323,-888.247130,-2664.741391,-79520.712692
253.259888,-1628.453072,4589.276840,-79061.055394
253.262453,-444.123565,2516.700203,-80286.808190
253.265018,740.205942,8882.471304,-76762.768900
253.267583,592.164754,2960.823768,-77988.521696
253.270148,-444.123565,6661.853478,-78907.836294
253.272713,-740.205942,5921.647536,-79673.931792
253.275278,0.000000,4589.276840,-78448.178995
253.277844,592.164754,2664.741391,-78448.178995
253.280409,-148.041188,-888.247130,-79061.055394
253.282974,-1184.329507,2960.823768,-78907.836294
253.285539,444.123565,-2516.700203,-78907.836294
253.288104,-1924.535449,-7105.977043,-78448.178995
253.290669,-740.205942,-15100.201217,-78141.740796
253.293234,0.000000,-14508.036463,-78141.740796
253.295799,-740.205942,-13915.871710,-78294.959896
253.298364,-740.205942,-11103.089130,-79673.931792
253.300929,-592.164754,-4145.153275,-79673.931792
253.303494,-444.123565,-1776.494261,-79214.274493
253.306059,-296.082377,-888.247130,-80286.808190
253.308624,-592.164754,-1480.411884,-76609.549800
253.311192,444.123565,-2072.576638,-77682.083497
253.313760,-1628.453072,-10214.842000,-78294.959896
253.316328,148.041188,-10362.883188,-80899.684589
253.318896,1036.288319,-12731.542202,-77222.426198
253.321463,-1924.535449,-11695.253884,-79061.055394
253.324031,-888.247130,-9770.718434,-79520.712692
253.326599,-296.082377,-4441.235652,-77682.083497
253.329167,-1036.288319,-5773.606348,-78294.959896
253.331735,1628.453072,-7846.182985,-79520.712692
253.334303,-296.082377,-7402.059420,-78294.959896
253.336870,-1924.535449,-3256.906145,-78294.959896
253.339438,888.247130,3552.988522,-79980.369991
253.342006,0.000000,7105.977043,-79980.369991
253.344574,1332.370696,10066.800811,-79061.055394
253.347142,148.041188,10955.047942,-78754.617194
253.349710,-2516.700203,11399.171507,-78448.178995
253.352277,-2516.700203,1924.535449,-79214.274493
253.354845,1184.329507,-2960.823768,-78907.836294
253.357413,-296.082377,-4885.359217,-79980.369991
253.359981,0.000000,-6365.771101,-77988.521696
253.362549,-444.123565,5477.523971,-76149.892501
253.365117,-888.247130,8734.430116,-78907.836294
253.367684,1036.288319,5625.565159,-80440.027290
253.370252,1332.370696,7402.059420,-79214.274493
253.372820,740.205942,9622.677246,-78294.959896
253.375388,-740.205942,7105.977043,-78448.178995
253.377956,148.041188,-740.205942,-80899.684589
253.380524,-296.082377,4589.276840,-78907.836294
253.383091,-444.123565,888.247130,-79214.274493
253.385659,-740.205942,4293.194464,-78754.617194
253.388227,-296.082377,1776.494261,-78601.398095
253.390795,-888.247130,-5921.647536,-78907.836294
253.393363,-592.164754,-9770.718434,-79214.274493
253.395931,0.000000,-15248.242405,-78141.740796
253.398498,740.205942,-16432.571912,-78141.740796
253.401066,-444.123565,-14063.912898,-79673.931792
253.403634,-1184.329507,-7105.977043,-79367.493593
253.406202,-1480.411884,-148.041188,-79214.274493
253.408770,592.164754,-1036.288319,-79520.712692
253.411338,1036.288319,-5181.441594,-78141.740796
253.413908,-740.205942,-11843.295072,-80133.589091
253.416478,0.000000,4441.235652,-75996.673402
253.419049,296.082377,-14359.995275,-78294.959896
253.421619,740.205942,-7550.100608,-78601.398095
253.424190,-1480.411884,-16728.654289,-80133.589091
253.426760,-592.164754,-7698.141797,-80440.027290
253.429331,-1184.329507,-10214.842000,-78141.740796
253.431901,-296.082377,-3997.112087,-76149.892501
253.434472,148.041188,-5625.565159,-79214.274493
253.437042,-148.041188,-6661.853478,-77682.083497
253.439612,-1480.411884,-3404.947333,-77988.521696
253.442183,-592.164754,-1036.288319,-79520.712692
253.444753,-1184.329507,7994.224174,-80746.465489
253.447324,1776.494261,7105.977043,-80440.027290
253.449894,-592.164754,14656.077652,-77835.302597
253.452465,-148.041188,8142.265362,-78448.178995
253.455035,-444.123565,4885.359217,-79980.369991
253.457606,444.123565,-2812.782580,-79214.274493
253.460176,-296.082377,-1332.370696,-77069.207099
253.462746,-888.247130,-444.123565,-80286.808190
253.465317,-296.082377,-3404.947333,-79980.369991
253.467887,-1480.411884,592.164754,-77835.302597
253.470458,-1480.411884,3552.988522,-79520.712692
253.473028,1184.329507,9326.594869,-78294.959896
253.475599,-148.041188,6365.771101,-79520.712692
253.478169,-1776.494261,10955.047942,-78448.178995
253.480740,-444.123565,2368.659014,-79214.274493
253.483310,-1184.329507,8142.265362,-78294.959896
253.485880,-444.123565,-1776.494261,-79673.931792
253.488451,-148.041188,3552.988522,-78601.398095
253.491021,-1628.453072,0.000000,-78907.836294
253.493592,-1480.411884,-4145.153275,-79367.493593
253.496162,-888.247130,-12287.418637,-78907.836294
253.498733,-592.164754,-15544.324782,-78294.959896
253.501303,-148.041188,-15396.283594,-78141.740796
253.503874,-592.164754,-13619.789333,-78294.959896
253.506444,-1332.370696,-7698.141797,-79061.055394
253.509014,-740.205942,-2072.576638,-79061.055394
253.511585,-1184.329507,-2664.741391,-78601.398095
253.514155,-1776.494261,740.205942,-80286.808190
253.516693,-888.247130,-1924.535449,-78294.959896
253.519232,-1480.411884,-11399.171507,-79827.150892
253.521770,-1184.329507,-2812.782580,-79520.712692
253.524308,740.205942,-12731.542202,-78601.398095
253.526846,-1480.411884,-9474.636058,-78141.740796
253.529384,-740.205942,-13471.748144,-79214.274493
253.531922,-740.205942,-7550.100608,-79520.712692
253.534460,-740.205942,-8734.430116,-79214.274493
253.536998,148.041188,-4441.235652,-78754.617194
253.539536,-1036.288319,-7550.100608,-79673.931792
253.542074,-888.247130,-4737.318029,-78448.178995
253.544612,-1184.329507,2812.782580,-78907.836294
253.547151,-296.082377,6957.935855,-79980.369991
253.549689,1628.453072,10066.800811,-78601.398095
253.552227,148.041188,11991.336260,-79673.931792
253.554765,-1776.494261,9918.759623,-79367.493593
253.557303,296.082377,4885.359217,-78907.836294
253.559841,0.000000,-1480.411884,-78907.836294
253.562379,0.000000,-3701.029710,-79061.055394
253.564917,592.164754,-7254.018232,-79367.493593
253.567455,-1628.453072,-148.041188,-78907.836294
253.569993,296.082377,11547.212695,-77528.864398
253.572532,-740.205942,592.164754,-80286.808190
253.575070,1184.329507,7105.977043,-78907.836294
253.577608,-1332.370696,4293.194464,-79980.369991
253.580146,-1184.329507,8586.388927,-80286.808190
253.582684,148.041188,2072.576638,-80593.246390
253.585222,888.247130,5033.400406,-77682.083497
253.587760,-148.041188,1332.370696,-78141.740796
253.590298,148.041188,2812.782580,-79061.055394
253.592836,-740.205942,2812.782580,-78294.959896
253.595374,-296.082377,-7994.224174,-79061.055394
253.597913,296.082377,-11251.130318,-78448.178995
253.600451,-592.164754,-14804.118840,-78448.178995
253.602989,0.000000,-15248.242405,-79214.274493
253.605527,-1480.411884,-13619.789333,-78754.617194
253.608065,444.123565,-8734.430116,-79214.274493
253.610603,-444.123565,1332.370696,-78907.836294
253.613141,1184.329507,1776.494261,-77988.521696
253.615679,148.041188,3552.988522,-77528.864398
253.618226,592.164754,-6365.771101,-80440.027290
253.620772,-888.247130,-4589.276840,-79061.055394
253.623319,-296.082377,-12879.583391,-81206.122788
253.625865,1036.288319,-11991.336260,-79673.931792
253.628412,-740.205942,-13619.789333,-77375.645298
253.630958,-296.082377,-8142.265362,-78907.836294
253.633505,-444.123565,-6661.853478,-78754.617194
253.636052,-740.205942,-4737.318029,-77988.521696
253.638598,740.205942,-8142.265362,-78448.178995
253.641145,-740.205942,-9178.553681,-79061.055394
253.643691,-1480.411884,-1184.329507,-77988.521696
253.646238,-444.123565,6217.729913,-79367.493593
253.648784,592.164754,10066.800811,-79673.931792
253.651331,1184.329507,10658.965565,-79061.055394
253.653877,1036.288319,10066.800811,-79367.493593
253.656424,-1924.535449,8438.347739,-78601.398095
253.658970,-740.205942,2368.659014,-78601.398095
253.661517,296.082377,-4145.153275,-79214.274493
253.664064,1184.329507,-1332.370696,-76456.330700
253.666610,-1924.535449,-12731.542202,-80133.589091
253.669157,-1480.411884,12879.583391,-79214.274493
253.671703,-888.247130,2812.782580,-78754.617194
253.674250,592.164754,2960.823768,-80440.027290
253.676796,1332.370696,9918.759623,-75383.797003
253.679343,-2368.659014,6513.812290,-79061.055394
253.681889,-148.041188,8882.471304,-77682.083497
253.684436,-296.082377,888.247130,-78907.836294
253.686982,0.000000,5181.441594,-78448.178995
253.689529,-592.164754,-2960.823768,-81512.560987
253.692076,-1628.453072,5329.482782,-78754.617194
253.694622,-296.082377,-7402.059420,-79367.493593
253.697169,148.041188,-7994.224174,-77988.521696
253.699715,296.082377,-15248.242405,-77682.083497
253.702262,-1036.288319,-11103.089130,-77682.083497
253.704808,-2072.576638,-16284.530724,-78601.398095
253.707355,-888.247130,-9326.594869,-79367.493593
253.709901,-1332.370696,-1924.535449,-79520.712692
253.712448,148.041188,-148.041188,-79367.493593
253.714994,-444.123565,-4441.235652,-77988.521696
253.717541,148.041188,592.164754,-77682.083497
253.720094,592.164754,-3404.947333,-80593.246390
253.722648,-1776.494261,-7254.018232,-78754.617194
253.725201,296.082377,-15100.201217,-79827.150892
253.727755,-1184.329507,-10955.047942,-77988.521696
253.730308,-888.247130,-15100.201217,-79673.931792
253.732862,-740.205942,-9474.636058,-78754.617194
253.735415,-1184.329507,-9178.553681,-78601.398095
253.737969,740.205942,-7105.977043,-77988.521696
253.740522,-888.247130,-9474.636058,-79520.712692
253.743076,-888.247130,-3701.029710,-79061.055394
253.745629,-888.247130,4589.276840,-79061.055394
253.748183,444.123565,10510.924376,-79673.931792
253.750736,0.000000,8734.430116,-78907.836294
253.753290,-444.123565,10955.047942,-78754.617194
253.755843,-1184.329507,6069.688724,-79061.055394
253.758397,-1776.494261,4737.318029,-77682.083497
253.760950,1184.329507,-3552.988522,-78907.836294
253.763504,444.123565,-4293.194464,-78141.740796
253.766057,592.164754,3997.112087,-78601.398095
253.768610,-1332.370696,888.247130,-77682.083497
253.771164,-888.247130,2664.741391,-78907.836294
253.773717,-592.164754,4293.194464,-79827.150892
253.776271,-148.041188,8438.347739,-81052.903688
253.778824,444.123565,7698.141797,-78754.617194
253.781378,-592.164754,5773.606348,-77682.083497
253.783931,-444.123565,5181.441594,-79061.055394
253.786485,888.247130,2072.576638,-78601.398095
253.789038,1184.329507,3108.864956,-78754.617194
253.791592,-1480.411884,1332.370696,-77835.302597
253.794145,296.082377,-9030.512492,-78294.959896
253.796699,-296.082377,-10066.800811,-79673.931792
253.799252,-1628.453072,-15988.448347,-79673.931792
253.801806,0.000000,-13027.624579,-78141.740796
253.804359,-592.164754,-17024.736666,-79061.055394
253.806913,-1036.288319,-7254.018232,-78141.740796
253.809466,-1480.411884,148.041188,-78601.398095
253.812019,296.082377,1628.453072,-80593.246390
253.814573,444.123565,-3849.070898,-77835.302597
253.817126,1036.288319,-444.123565,-77528.864398
253.819680,-888.247130,-12139.377449,-80746.465489
253.822238,444.123565,-6069.688724,-79061.055394
253.824797,-740.205942,-13915.871710,-79520.712692
253.827356,1776.494261,-11695.253884,-78754.617194
253.829914,-296.082377,-10066.800811,-79214.274493
253.832473,-888.247130,-6513.812290,-77988.521696
253.835031,148.041188,-6365.771101,-79214.274493
253.837590,1184.329507,-7994.224174,-78141.740796
253.840148,-444.123565,-5625.565159,-79061.055394
253.842707,-1628.453072,-1480.411884,-79061.055394
253.845265,-1628.453072,9178.553681,-79673.931792
253.847824,888.247130,9622.677246,-79214.274493
253.850383,1036.288319,11251.130318,-79367.493593
253.852941,-296.082377,10510.924376,-79367.493593
253.855500,-592.164754,7550.100608,-79673.931792
253.858058,-740.205942,-1332.370696,-79061.055394
253.860617,1776.494261,-5033.400406,-79367.493593
253.863175,-740.205942,-5033.400406,-78601.398095
253.865734,0.000000,6513.812290,-78601.398095
253.868292,-1776.494261,5921.647536,-78601.398095
253.870851,0.000000,4589.276840,-80133.589091
253.873409,0.000000,5921.647536,-80133.589091
253.875968,148.041188,7698.141797,-79061.055394
253.878527,-1332.370696,8290.306550,-80133.589091
253.881085,148.041188,5773.606348,-78754.617194
253.883644,-1628.453072,4293.194464,-78754.617194
253.886202,444.123565,2220.617826,-79367.493593
253.888761,148.041188,888.247130,-78601.398095
253.891319,-1332.370696,148.041188,-76915.987999
253.893878,-296.082377,-12583.501014,-79827.150892
253.896436,148.041188,-9474.636058,-79214.274493
253.898995,148.041188,-16876.695478,-77988.521696
253.901554,-740.205942,-15248.242405,-79673.931792
253.904112,-1184.329507,-15248.242405,-77835.302597
253.906671,-1480.411884,-6217.729913,-78907.836294
253.909229,-1184.329507,740.205942,-78294.959896
253.911788,-888.247130,-5181.441594,-77682.083497
253.914346,-740.205942,-1332.370696,-79061.055394
253.916905,-1036.288319,-7402.059420,-79827.150892
253.919463,-1184.329507,-7105.977043,-80899.684589
253.922022,296.082377,-6365.771101,-74464.482406
253.924585,-296.082377,-15544.324782,-77835.302597
253.927148,-1480.411884,-10510.924376,-79367.493593
253.929711,-1036.288319,-15248.242405,-82125.437386
253.932274,-1924.535449,-3404.947333,-77988.521696
253.934836,740.205942,-11695.253884,-81052.903688
253.937399,-1036.288319,-3997.112087,-79827.150892
253.939962,-1776.494261,-6365.771101,-79673.931792
253.942525,296.082377,8586.388927,-77375.645298
253.945088,-2072.576638,7254.018232,-79061.055394
253.947651,1776.494261,11399.171507,-80746.465489
253.950214,-1332.370696,9030.512492,-78907.836294
253.952777,0.000000,10658.965565,-78907.836294
253.955340,-1332.370696,2516.700203,-79061.055394
253.957903,1480.411884,-3256.906145,-79367.493593
253.960465,-444.123565,-7254.018232,-78448.178995
253.963028,-1480.411884,-7994.224174,-81512.560987
253.965591,-148.041188,12435.459826,-77069.207099
253.968154,-1184.329507,5033.400406,-75996.673402
253.970717,-444.123565,2368.659014,-82585.094684
253.973280,888.247130,5921.647536,-79214.274493
253.975843,148.041188,5181.441594,-80593.246390
253.978406,-888.247130,7105.977043,-79520.712692
253.980969,-888.247130,3108.864956,-78601.398095
253.983532,-148.041188,5181.441594,-77835.302597
253.986094,740.205942,1924.535449,-79520.712692
253.988657,-444.123565,2516.700203,-79214.274493
253.991220,-296.082377,-11103.089130,-79980.369991
253.993783,-444.123565,-11843.295072,-79520.712692
253.996346,-1480.411884,-17616.901420,-77835.302597
253.998909,592.164754,-13471.748144,-79061.055394
254.001472,-1332.370696,-13323.706956,-77682.083497
254.004035,1036.288319,-7846.182985,-78448.178995
254.006598,-2516.700203,-148.041188,-79673.931792
254.009161,740.205942,444.123565,-77835.302597
254.011723,-1332.370696,-6513.812290,-80440.027290
254.014286,0.000000,-2664.741391,-79520.712692
254.016849,-592.164754,-7994.224174,-80133.589091
254.019412,-1184.329507,-9326.594869,-81206.122788
254.021975,444.123565,-11547.212695,-77835.302597
254.024538,296.082377,-13915.871710,-75690.235202
254.027104,-148.041188,-11843.295072,-78754.617194
254.029670,-1332.370696,-10362.883188,-78907.836294
254.032235,1332.370696,-7105.977043,-79214.274493
254.034801,-740.205942,-7402.059420,-78754.617194
254.037367,-444.123565,-1628.453072,-79673.931792
254.039933,-148.041188,4441.235652,-80286.808190
254.042498,-888.247130,12583.501014,-79061.055394
254.045064,888.247130,9622.677246,-78601.398095
254.047630,888.247130,12583.501014,-78907.836294
254.050196,-296.082377,8142.265362,-79367.493593
254.052762,-1036.288319,5329.482782,-78141.740796
254.055327,-2368.659014,-6069.688724,-79827.150892
254.057893,1036.288319,-6365.771101,-80286.808190
254.060459,740.205942,2664.741391,-80286.808190
254.063025,-1776.494261,888.247130,-77835.302597
254.065590,-296.082377,3701.029710,-79673.931792
254.068156,740.205942,6809.894666,-76915.987999
254.070722,888.247130,6365.771101,-80133.589091
254.073288,-296.082377,9622.677246,-82585.094684
254.075853,148.041188,7105.977043,-79520.712692
254.078419,-1776.494261,6365.771101,-79367.493593
254.080985,-296.082377,740.205942,-80286.808190
254.083551,296.082377,2812.782580,-77988.521696
254.086117,-740.205942,1924.535449,-77835.302597
254.088682,-888.247130,-11103.089130,-79214.274493
254.091248,148.041188,-11991.336260,-79061.055394
254.093814,-1480.411884,-17764.942608,-79367.493593
254.096380,148.041188,-11991.336260,-79367.493593
254.098945,-1776.494261,-13027.624579,-79061.055394
254.101511,1776.494261,-6957.935855,-80133.589091
254.104077,-1332.370696,2220.617826,-79061.055394
254.106643,1480.411884,2664.741391,-76609.549800
254.109209,-1332.370696,-7105.977043,-79980.369991
254.111774,0.000000,-1924.535449,-77988.521696
254.114340,-1036.288319,-4441.235652,-78294.959896
254.116906,-1184.329507,-10955.047942,-79520.712692
254.119472,-148.041188,-12139.377449,-79980.369991
254.122037,-2220.617826,-13915.871710,-78754.617194
254.124603,444.123565,-12139.377449,-79520.712692
254.127169,-296.082377,-9918.759623,-79214.274493
254.129705,148.041188,-5773.606348,-78141.740796
254.132240,-444.123565,-7254.018232,-78754.617194
254.134776,-1332.370696,-2664.741391,-79061.055394
254.137312,-296.082377,7846.182985,-80286.808190
254.139847,-888.247130,10510.924376,-79367.493593
254.142383,-444.123565,10807.006753,-80133.589091
254.144918,592.164754,9178.553681,-79520.712692
254.147454,-1332.370696,8142.265362,-78754.617194
254.149990,-148.041188,1924.535449,-79367.493593
254.152525,-888.247130,-4293.194464,-77682.083497
254.155061,296.082377,-6957.935855,-79214.274493
254.157597,-148.041188,4293.194464,-79061.055394
254.160132,-1184.329507,4885.359217,-79520.712692
254.162668,-888.247130,7254.018232,-79980.369991
254.165203,148.041188,3256.906145,-80286.808190
254.167739,592.164754,8586.388927,-78754.617194
254.170275,-888.247130,7550.100608,-79980.369991
254.172810,-1332.370696,8438.347739,-78294.959896
254.175346,0.000000,4441.235652,-79061.055394
254.177882,148.041188,148.041188,-78141.740796
254.180417,-296.082377,1628.453072,-78601.398095
254.182953,-1776.494261,-6069.688724,-79520.712692
254.185488,-592.164754,-10214.842000,-78754.617194
254.188024,-296.082377,-15988.448347,-77375.645298
254.190560,-296.082377,-14063.912898,-78294.959896
254.193095,-444.123565,-16580.613101,-80133.589091
254.195631,740.205942,-10510.924376,-78601.398095
254.198167,-1036.288319,-8438.347739,-79980.369991
254.200702,-740.205942,1924.535449,-79673.931792
254.203238,-1332.370696,5477.523971,-79061.055394
254.205773,740.205942,-9178.553681,-76609.549800
254.208309,444.123565,-5033.400406,-77375.645298
254.210853,-444.123565,-10214.842000,-78601.398095
254.213397,-1628.453072,-12287.418637,-83351.190182
254.215941,-444.123565,-13175.665768,-79673.931792
254.218485,-148.041188,-13027.624579,-76456.330700
254.221029,592.164754,-9178.553681,-77835.302597
254.223573,444.123565,-10066.800811,-79214.274493
254.226117,-888.247130,-3108.864956,-77375.645298
254.228661,-1480.411884,-4441.235652,-78294.959896
254.231205,592.164754,8882.471304,-79520.712692
254.233749,-592.164754,8438.347739,-80286.808190
254.236293,-148.041188,14359.995275,-79214.274493
254.238837,592.164754,8882.471304,-78601.398095
254.241381,-1036.288319,9326.594869,-78754.617194
254.243925,-1776.494261,592.164754,-80133.589091
254.246469,-1036.288319,-3701.029710,-78448.178995
254.249013,740.205942,2072.576638,-79214.274493
254.251557,-296.082377,-8290.306550,-78907.836294
254.254101,-1480.411884,-8586.388927,-81052.903688
254.256645,-740.205942,13027.624579,-77069.207099
254.259189,-740.205942,6661.853478,-79214.274493
254.261733,148.041188,13767.830521,-78448.178995
254.264277,-592.164754,7994.224174,-78448.178995
254.266821,-1628.453072,11251.130318,-77682.083497
254.269365,0.000000,888.247130,-80899.684589
254.271909,-1036.288319,1776.494261,-78754.617194
254.274453,0.000000,0.000000,-79367.493593
254.276997,-592.164754,-3552.988522,-79367.493593
254.279541,-296.082377,-10362.883188,-77375.645298
254.282086,-592.164754,-15544.324782,-79061.055394
254.284630,-1036.288319,-14063.912898,-77069.207099
254.287174,-296.082377,-16580.613101,-79520.712692
254.289718,-296.082377,-8438.347739,-79520.712692
254.292262,-592.164754,-4589.276840,-79061.055394
254.294806,-296.082377,2664.741391,-78448.178995
254.297350,-592.164754,-6217.729913,-81206.122788
254.299894,1036.288319,592.164754,-77375.645298
254.302438,-1184.329507,-7254.018232,-77988.521696
254.304982,-592.164754,-7105.977043,-78141.740796
254.307526,148.041188,-11991.336260,-76303.111601
254.310070,-1480.411884,-14359.995275,-78754.617194
254.312621,1036.288319,-10658.965565,-79214.274493
254.315173,-1776.494261,-11103.089130,-79367.493593
254.317724,2220.617826,-9474.636058,-78754.617194
254.320276,-1184.329507,-6513.812290,-78294.959896
254.322828,-444.123565,-4145.153275,-78754.617194
254.325379,-1036.288319,8290.306550,-78907.836294
254.327931,888.247130,11251.130318,-79367.493593
254.330482,-296.082377,11843.295072,-79673.931792
254.333034,1332.370696,11399.171507,-79214.274493
254.335586,-1480.411884,9030.512492,-78754.617194
254.338137,-592.164754,2664.741391,-78907.836294
254.340689,-296.082377,-5181.441594,-79520.712692
254.343241,1332.370696,-7105.977043,-78448.178995
254.345792,-1332.370696,-1924.535449,-80286.808190
254.348344,-1184.329507,6661.853478,-78294.959896
254.350895,-888.247130,296.082377,-79980.369991
254.353447,148.041188,7698.141797,-79673.931792
254.355999,-148.041188,7698.141797,-81052.903688
254.358550,-1184.329507,12879.583391,-79061.055394
254.361102,-888.247130,5625.565159,-76915.987999
254.363653,-888.247130,7105.977043,-78448.178995
254.366205,0.000000,-888.247130,-79520.712692
254.368757,-592.164754,2516.700203,-77528.864398
254.371308,-296.082377,-7550.100608,-78754.617194
254.373860,-888.247130,-14063.912898,-79980.369991
254.376411,-888.247130,-15692.365970,-79367.493593
254.378963,-148.041188,-15248.242405,-78448.178995
254.381515,-1184.329507,-12583.501014,-77835.302597
254.384066,888.247130,-12139.377449,-78448.178995
254.386618,-1184.329507,-5625.565159,-79520.712692
254.389169,-592.164754,444.123565,-77988.521696
254.391721,-1628.453072,-6217.729913,-79520.712692
254.394273,-444.123565,-444.123565,-78448.178995
254.396824,592.164754,-5477.523971,-77528.864398
254.399376,-1628.453072,-10658.965565,-79673.931792
254.401927,-888.247130,-12731.542202,-78907.836294
254.404479,-1332.370696,-14656.077652,-77528.864398
254.407031,444.123565,-13767.830521,-77835.302597
254.409582,-296.082377,-12139.377449,-80286.808190
254.412134,-1184.329507,-6513.812290,-77835.302597
254.414691,-888.247130,-7402.059420,-77835.302597
254.417248,-1036.288319,592.164754,-78448.178995
254.419805,-1184.329507,8438.347739,-80899.684589
254.422362,-592.164754,10955.047942,-79827.150892
254.424919,592.164754,12139.377449,-78294.959896
254.427476,-888.247130,9178.553681,-78294.959896
254.430033,-2220.617826,3404.947333,-79214.274493
254.432591,-888.247130,-592.164754,-79061.055394
254.435148,-1184.329507,-2960.823768,-78601.398095
254.437705,1332.370696,-6513.812290,-79827.150892
254.440262,-740.205942,-6217.729913,-79673.931792
254.442819,-1480.411884,4441.235652,-78448.178995
254.445376,-1776.494261,8438.347739,-77988.521696
254.447933,-148.041188,7402.059420,-79673.931792
254.450490,-148.041188,11547.212695,-78754.617194
254.453047,-148.041188,9030.512492,-79673.931792
254.455604,-1184.329507,2664.741391,-79673.931792
254.458161,-2516.700203,1776.494261,-78907.836294
254.460718,1776.494261,1036.288319,-77835.302597
254.463276,444.123565,3256.906145,-78907.836294
254.465833,-148.041188,-10066.800811,-79520.712692
254.468390,-888.247130,-12139.377449,-78601.398095
254.470947,-1184.329507,-18949.272115,-77528.864398
254.473504,740.205942,-17616.901420,-80286.808190
254.476061,-592.164754,-12731.542202,-78754.617194
254.478618,296.082377,-5921.647536,-78294.959896
254.481175,-1332.370696,2812.782580,-79673.931792
254.483732,1036.288319,2960.823768,-79827.150892
254.486289,-444.123565,-5477.523971,-80593.246390
254.488846,1184.329507,-3849.070898,-75996.673402
254.491403,-888.247130,-8882.471304,-79061.055394
254.493961,1332.370696,-11843.295072,-77222.426198
254.496518,-592.164754,-15692.365970,-77988.521696
254.499075,296.082377,-11991.336260,-78601.398095
254.501632,-888.247130,-7402.059420,-79520.712692
254.504189,2220.617826,-11843.295072,-78601.398095
254.506746,-1036.288319,-7254.018232,-78448.178995
254.509303,888.247130,-5033.400406,-77375.645298
254.511860,740.205942,10658.965565,-79367.493593
254.514417,296.082377,9030.512492,-79214.274493
254.516979,1628.453072,14508.036463,-78141.740796
254.519541,888.247130,11547.212695,-77988.521696
254.522103,-2664.741391,11843.295072,-79827.150892
254.524664,-888.247130,1036.288319,-80440.027290
254.527226,-296.082377,-1924.535449,-78907.836294
254.529788,1776.494261,148.041188,-78907.836294
254.532350,-592.164754,4441.235652,-80593.246390
254.534911,-888.247130,-9326.594869,-81512.560987
254.537473,-1184.329507,8734.430116,-76149.892501
254.540035,-740.205942,5329.482782,-79061.055394
254.542597,888.247130,15840.407159,-79061.055394
254.545158,444.123565,6513.812290,-79673.931792
254.547720,-2664.741391,9622.677246,-79061.055394
254.550282,-888.247130,740.205942,-79827.150892
254.552844,0.000000,3849.070898,-78601.398095
254.555405,-740.205942,4737.318029,-79520.712692
254.557967,1332.370696,-10807.006753,-78754.617194
254.560529,-592.164754,-10955.047942,-77682.083497
254.563091,-740.205942,-21317.931130,-78907.836294
254.565652,-444.123565,-11843.295072,-78294.959896
254.568214,-148.041188,-15988.448347,-79367.493593
254.570776,-444.123565,-4293.194464,-77835.302597
254.573338,-444.123565,-6217.729913,-79061.055394
254.575899,-592.164754,-2220.617826,-77528.864398
254.578461,-740.205942,1776.494261,-78141.740796
254.581023,-888.247130,-5033.400406,-80133.589091
254.583585,592.164754,-3404.947333,-79673.931792
254.586146,-592.164754,-13915.871710,-77682.083497
254.588708,-444.123565,-11843.295072,-78754.617194
254.591270,-888.247130,-17764.942608,-80440.027290
254.593832,-888.247130,-8586.388927,-78294.959896
254.596393,740.205942,-12139.377449,-79980.369991
254.598955,-1332.370696,-5329.482782,-79827.150892
254.601517,-1036.288319,-4293.194464,-79367.493593
254.604079,-592.164754,7698.141797,-78754.617194
254.606640,-740.205942,8290.306550,-79214.274493
254.609202,1184.329507,16284.530724,-79520.712692
254.611764,-888.247130,11399.171507,-78754.617194
254.614326,-1628.453072,11399.171507,-78141.740796
254.616888,-1924.535449,148.041188,-79367.493593
254.619453,-444.123565,-5921.647536,-78754.617194
254.622019,148.041188,2960.823768,-77375.645298
254.624585,-1480.411884,-7550.100608,-80899.684589
254.627150,-296.082377,6661.853478,-78601.398095
254.629716,-444.123565,1924.535449,-79367.493593
254.632282,1036.288319,11695.253884,-77835.302597
254.634848,-1628.453072,6069.688724,-79367.493593
254.637413,888.247130,11251.130318,-79980.369991
254.639979,444.123565,6661.853478,-79367.493593
254.642545,-2072.576638,1480.411884,-79827.150892
254.645111,-444.123565,2960.823768,-79061.055394
254.647676,1036.288319,444.123565,-79367.493593
254.650242,-148.041188,-10955.047942,-77682.083497
254.652808,444.123565,-14952.160028,-78754.617194
254.655373,-1184.329507,-19985.560434,-77988.521696
254.657939,592.164754,-15692.365970,-79214.274493
254.660505,-1628.453072,-12435.459826,-78601.398095
254.663071,592.164754,-5625.565159,-78601.398095
254.665636,-1480.411884,2960.823768,-80286.808190
254.668202,296.082377,-5773.606348,-79214.274493
254.670768,-1036.288319,296.082377,-76609.549800
254.673334,-296.082377,-9178.553681,-80440.027290
254.675899,1332.370696,-5181.441594,-79673.931792
254.678465,-148.041188,-14656.077652,-79367.493593
254.681031,-444.123565,-16432.571912,-77835.302597
254.683596,296.082377,-11399.171507,-77988.521696
254.686162,-148.041188,-10658.965565,-79367.493593
254.688728,-444.123565,-9178.553681,-79673.931792
254.691294,0.000000,-8290.306550,-78141.740796
254.693859,-2368.659014,-1184.329507,-77682.083497
254.696425,444.123565,9770.718434,-79827.150892
254.698991,-148.041188,12583.501014,-79827.150892
254.701557,0.000000,11991.336260,-77682.083497
254.704122,296.082377,10510.924376,-78601.398095
254.706688,-740.205942,5625.565159,-79214.274493
254.709254,-1184.329507,1776.494261,-79980.369991
254.711820,148.041188,-5329.482782,-76915.987999
254.714385,888.247130,-1036.288319,-78601.398095
254.716951,-740.205942,-6957.935855,-80440.027290
254.719517,-2220.617826,5921.647536,-79367.493593
254.722082,-148.041188,6513.812290,-79214.274493
254.724650,-296.082377,10807.006753,-77682.083497
254.727218,1628.453072,11843.295072,-78754.617194
254.729787,-296.082377,9622.677246,-79214.274493
254.732355,0.000000,4737.318029,-79061.055394
254.734923,-592.164754,1332.370696,-79214.274493
254.737491,0.000000,1036.288319,-79520.712692
254.740059,-296.082377,-3256.906145,-79827.150892
254.742627,592.164754,-8882.471304,-77682.083497
254.745195,-1480.411884,-17468.860231,-77988.521696
254.747763,-740.205942,-15396.283594,-78448.178995
254.750332,-444.123565,-17024.736666,-80133.589091
254.752900,1628.453072,-9030.512492,-79214.274493
254.755468,-148.041188,-4737.318029,-78448.178995
254.758036,-296.082377,1184.329507,-78294.959896
254.760604,-1332.370696,-4589.276840,-81359.341888
254.763172,-1184.329507,-5033.400406,-80286.808190
254.765740,-1776.494261,-5033.400406,-77375.645298
254.768308,-296.082377,-7254.018232,-78754.617194
254.770876,-888.247130,-14508.036463,-78907.836294
254.773445,0.000000,-14952.160028,-78754.617194
254.776013,-1628.453072,-11695.253884,-78601.398095
254.778581,1332.370696,-10214.842000,-79673.931792
254.781149,-888.247130,-8438.347739,-79520.712692
254.783717,-1184.329507,-4293.194464,-79061.055394
254.786285,-296.082377,9770.718434,-78448.178995
254.788853,-1332.370696,10214.842000,-79827.150892
254.791421,888.247130,13027.624579,-79367.493593
254.793990,296.082377,11399.171507,-78907.836294
254.796558,-2220.617826,10955.047942,-77528.864398
254.799126,-1924.535449,1776.494261,-79367.493593
254.801694,-296.082377,-4885.359217,-78141.740796
254.804262,1184.329507,-8586.388927,-78294.959896
254.806830,-888.247130,2664.741391,-76762.768900
254.809398,-1480.411884,-2220.617826,-79367.493593
254.811966,-2220.617826,8734.430116,-78141.740796
254.814535,-296.082377,5625.565159,-79673.931792
254.817103,592.164754,13175.665768,-78601.398095
