#time,accel_x,accel_y,accel_z
134.668011,4145.153275,-3256.906145,-80593.246390
134.671602,4885.359217,-2368.659014,-79520.712692
134.675193,6957.935855,-148.041188,-78294.959896
134.678784,-296.082377,-1184.329507,-77682.083497
134.682375,-7698.141797,-3256.906145,-78907.836294
134.685966,-6661.853478,-1924.535449,-78448.178995
134.689558,-7254.018232,148.041188,-78907.836294
134.693149,1480.411884,-1184.329507,-78754.617194
134.696740,5625.565159,-2516.700203,-78907.836294
134.700331,3404.947333,-444.123565,-79367.493593
134.703922,3997.112087,-592.164754,-78754.617194
134.707514,-7846.182985,-2664.741391,-79061.055394
134.711105,-7698.141797,-740.205942,-78294.959896
134.714696,296.082377,592.164754,-78907.836294
134.718287,6365.771101,-296.082377,-79673.931792
134.721878,1924.535449,-1332.370696,-80593.246390
134.725470,12287.418637,1480.411884,-79827.150892
134.729061,3849.070898,-2664.741391,-75537.016103
134.732652,1332.370696,-2960.823768,-78294.959896
134.736243,-3701.029710,-1628.453072,-78141.740796
134.739834,-3256.906145,1480.411884,-77682.083497
134.743426,5773.606348,-2368.659014,-81052.903688
134.747017,13471.748144,-1332.370696,-78601.398095
134.750608,5773.606348,-888.247130,-80899.684589
134.754199,-12435.459826,-3108.864956,-77835.302597
134.757790,-14952.160028,-4293.194464,-78294.959896
134.761382,-7105.977043,1332.370696,-78141.740796
134.764973,5625.565159,592.164754,-80286.808190
134.768268,3849.070898,-444.123565,-80593.246390
134.771563,-2220.617826,-1628.453072,-79367.493593
134.774859,-1776.494261,-2072.576638,-78754.617194
134.778154,-7846.182985,-1628.453072,-77375.645298
134.781449,-1924.535449,-4737.318029,-78294.959896
134.784744,-8734.430116,444.123565,-77222.426198
134.788040,-444.123565,1480.411884,-79673.931792
134.791335,6365.771101,-4737.318029,-81665.780087
134.794630,3552.988522,-740.205942,-80440.027290
134.797926,-4737.318029,-2072.576638,-80133.589091
134.801221,-5921.647536,-740.205942,-78141.740796
134.804516,-13619.789333,-3404.947333,-77682.083497
134.807811,-15840.407159,-444.123565,-80593.246390
134.811107,-444.123565,1480.411884,-78448.178995
134.814402,6957.935855,-2368.659014,-77222.426198
134.817697,1480.411884,-2368.659014,-79214.274493
134.820992,-8290.306550,-2812.782580,-78907.836294
134.824288,-7846.182985,-2516.700203,-78907.836294
134.827583,-4293.194464,-3108.864956,-79520.712692
134.830878,-592.164754,0.000000,-77375.645298
134.834174,444.123565,592.164754,-78601.398095
134.837469,-7846.182985,-740.205942,-78754.617194
134.840764,11251.130318,-3997.112087,-79061.055394
134.844059,17912.983796,-1480.411884,-80133.589091
134.847355,-888.247130,-2812.782580,-77988.521696
134.850650,-12731.542202,-1924.535449,-77988.521696
134.853945,-12879.583391,-1480.411884,-79214.274493
134.857240,11251.130318,2516.700203,-79520.712692
134.860536,27683.702231,-2072.576638,-78907.836294
134.863831,7254.018232,-5329.482782,-80899.684589
134.867126,-9178.553681,-2812.782580,-79827.150892
134.870422,-8586.388927,-1184.329507,-77835.302597
134.873553,-3849.070898,-2960.823768,-78754.617194
134.876684,15840.407159,1184.329507,-80286.808190
134.879815,-2368.659014,1332.370696,-80440.027290
134.882946,2812.782580,-2664.741391,-81052.903688
134.886078,-1036.288319,-4737.318029,-79673.931792
134.889209,0.000000,-2664.741391,-74617.701505
134.892340,-1036.288319,-444.123565,-79061.055394
134.895471,-592.164754,-5181.441594,-79367.493593
134.898603,-12583.501014,-1776.494261,-80286.808190
134.901734,8734.430116,3108.864956,-79367.493593
134.904865,19393.395680,-4589.276840,-77222.426198
134.907996,9770.718434,-5033.400406,-81818.999186
134.911127,-5773.606348,-1628.453072,-77682.083497
134.914259,-9326.594869,-2368.659014,-77222.426198
134.917390,-148.041188,-148.041188,-80899.684589
134.920521,13175.665768,592.164754,-80286.808190
134.923652,12287.418637,1628.453072,-79827.150892
134.926784,-1332.370696,-2664.741391,-78907.836294
134.929915,-11399.171507,-3701.029710,-79520.712692
134.933046,1776.494261,-888.247130,-76609.549800
134.936177,9326.594869,-2516.700203,-75996.673402
134.939308,-8290.306550,-2812.782580,-79214.274493
134.942440,-18653.189738,2664.741391,-79827.150892
134.945571,-11991.336260,-1628.453072,-80286.808190
134.948702,11547.212695,-888.247130,-80133.589091
134.951833,16284.530724,-3404.947333,-77682.083497
134.954965,-3108.864956,-1628.453072,-76609.549800
134.958096,-19097.313304,-3404.947333,-79980.369991
134.961227,-17616.901420,740.205942,-80286.808190
134.964358,-1776.494261,444.123565,-78141.740796
134.967489,8290.306550,-3404.947333,-81206.122788
134.970621,8438.347739,1036.288319,-79214.274493
134.973659,-10658.965565,-1036.288319,-76303.111601
134.976698,-5625.565159,-4737.318029,-78601.398095
134.979737,296.082377,-1924.535449,-78294.959896
134.982776,-4885.359217,-1184.329507,-78448.178995
134.985815,-1184.329507,592.164754,-79061.055394
134.988853,-3552.988522,1036.288319,-80133.589091
134.991892,-148.041188,-3849.070898,-79214.274493
134.994931,-1480.411884,-3404.947333,-80286.808190
134.997970,-13767.830521,-444.123565,-77069.207099
135.001008,-10955.047942,-2072.576638,-77988.521696
135.004047,-6809.894666,-3552.988522,-79214.274493
135.007086,1480.411884,1184.329507,-79214.274493
135.010125,1036.288319,-1480.411884,-80440.027290
135.013164,296.082377,-2516.700203,-79061.055394
135.016202,2072.576638,-3997.112087,-80133.589091
135.019241,-3849.070898,-1924.535449,-77988.521696
135.022280,-8438.347739,-2960.823768,-78294.959896
135.025319,-14063.912898,-1184.329507,-79827.150892
135.028357,4293.194464,148.041188,-78448.178995
135.031396,18357.107362,888.247130,-80440.027290
135.034435,7105.977043,-1332.370696,-79827.150892
135.037474,-5477.523971,-2072.576638,-77835.302597
135.040513,-12583.501014,-4737.318029,-77988.521696
135.043551,3997.112087,-1480.411884,-79214.274493
135.046590,13619.789333,-148.041188,-78294.959896
135.049629,7254.018232,-740.205942,-79827.150892
135.052668,-2220.617826,-592.164754,-78754.617194
135.055707,2072.576638,-296.082377,-79520.712692
135.058745,14063.912898,-3997.112087,-80133.589091
135.061784,13175.665768,-5033.400406,-76609.549800
135.064823,-1480.411884,-2220.617826,-81206.122788
135.067862,-6809.894666,-3404.947333,-75996.673402
135.071006,-5329.482782,1628.453072,-80746.465489
135.074151,592.164754,-296.082377,-81206.122788
135.077296,13619.789333,-6069.688724,-79520.712692
135.080441,4441.235652,-2516.700203,-79980.369991
135.083586,-2664.741391,-4145.153275,-77682.083497
135.086730,3552.988522,-1480.411884,-75843.454302
135.089875,7994.224174,-592.164754,-78907.836294
135.093020,-1184.329507,740.205942,-82585.094684
135.096165,-2368.659014,1480.411884,-78601.398095
135.099309,13175.665768,-1184.329507,-78907.836294
135.102454,12731.542202,-2812.782580,-79367.493593
135.105599,8438.347739,-1628.453072,-78754.617194
135.108744,-13471.748144,-1480.411884,-77375.645298
135.111889,-16580.613101,-2960.823768,-78141.740796
135.115033,7698.141797,1924.535449,-80899.684589
135.118178,15544.324782,-592.164754,-79520.712692
135.121323,3849.070898,-2812.782580,-76915.987999
135.124468,-12435.459826,-1776.494261,-78601.398095
135.127612,-18061.024985,-3552.988522,-79061.055394
135.130757,296.082377,-1184.329507,-79980.369991
135.133902,8586.388927,1036.288319,-78754.617194
135.137047,-3404.947333,-296.082377,-78448.178995
135.140191,-9326.594869,296.082377,-79367.493593
135.143336,-6365.771101,-5773.606348,-78754.617194
135.146481,1776.494261,-2072.576638,-79061.055394
135.149626,2664.741391,-2220.617826,-79214.274493
135.152771,-10658.965565,296.082377,-79061.055394
135.155915,-11843.295072,-1036.288319,-76149.892501
135.159060,-1184.329507,1184.329507,-79673.931792
135.162205,10214.842000,-888.247130,-81052.903688
135.165350,-4293.194464,-3404.947333,-79214.274493
135.168494,2516.700203,-2664.741391,-80286.808190
135.171709,-5477.523971,-2516.700203,-77528.864398
135.174924,-13471.748144,-2368.659014,-80593.246390
135.178139,-11695.253884,-740.205942,-75537.016103
135.181353,-3701.029710,444.123565,-78907.836294
135.184568,740.205942,-592.164754,-81818.999186
135.187783,1036.288319,-2960.823768,-79980.369991
135.190998,-2072.576638,-3404.947333,-82125.437386
135.194212,-4737.318029,-1184.329507,-77835.302597
135.197427,-5773.606348,-4441.235652,-78294.959896
135.200642,-6513.812290,1184.329507,-78601.398095
135.203857,-8586.388927,2664.741391,-76915.987999
135.207071,-148.041188,-2368.659014,-79827.150892
135.210286,16580.613101,-3552.988522,-80286.808190
135.213501,14656.077652,-2368.659014,-77835.302597
135.216716,-7402.059420,-1776.494261,-78601.398095
135.219930,-15692.365970,-1776.494261,-78141.740796
135.223145,-7105.977043,-1184.329507,-79214.274493
135.226360,15544.324782,3108.864956,-80899.684589
135.229575,24722.878463,-1628.453072,-78294.959896
135.232789,6661.853478,-4145.153275,-79367.493593
135.236004,-10807.006753,-2516.700203,-79061.055394
135.239219,-8290.306550,-740.205942,-78141.740796
135.242434,13323.706956,-1332.370696,-79673.931792
135.245648,11251.130318,3404.947333,-82278.656485
135.274949,7105.977043,-2368.659014,-79367.493593
135.278205,444.123565,-5033.400406,-77835.302597
135.281461,740.205942,-740.205942,-80133.589091
135.284716,5033.400406,-4589.276840,-79367.493593
135.287972,6661.853478,0.000000,-77528.864398
135.291227,-9770.718434,1776.494261,-78907.836294
135.294483,-7550.100608,0.000000,-77682.083497
135.297739,13767.830521,-2220.617826,-79673.931792
135.300994,8290.306550,-1480.411884,-81665.780087
135.304250,-3701.029710,-3256.906145,-78601.398095
135.307506,-16432.571912,-1184.329507,-77528.864398
135.310761,-18357.107362,-3997.112087,-79367.493593
135.314017,4589.276840,2516.700203,-79367.493593
135.317273,11399.171507,-740.205942,-81052.903688
135.320528,2220.617826,-3256.906145,-78907.836294
135.323784,-6365.771101,-2368.659014,-78294.959896
135.327040,-10214.842000,-1924.535449,-78601.398095
135.330295,-2516.700203,-2664.741391,-78294.959896
135.333551,-9474.636058,-1628.453072,-80899.684589
135.336807,-4145.153275,-1480.411884,-78754.617194
135.340062,-7698.141797,-444.123565,-75843.454302
135.343318,5625.565159,-2516.700203,-78141.740796
135.346574,3849.070898,-740.205942,-83044.751983
135.349829,8586.388927,-3404.947333,-79061.055394
135.353111,-10066.800811,-888.247130,-79673.931792
135.356392,-11251.130318,-444.123565,-77375.645298
135.359674,-1628.453072,1628.453072,-79214.274493
135.362955,-2664.741391,-1036.288319,-77375.645298
135.366237,296.082377,-2516.700203,-78141.740796
135.369518,2072.576638,-888.247130,-81359.341888
135.372800,-8734.430116,-3849.070898,-79367.493593
135.376081,-5329.482782,-2072.576638,-78294.959896
135.379363,-3997.112087,-2664.741391,-77988.521696
135.382644,-6069.688724,-148.041188,-78448.178995
135.385926,-2960.823768,-296.082377,-79061.055394
135.389207,3997.112087,-2220.617826,-78294.959896
135.392489,18209.066173,-2812.782580,-79520.712692
135.395770,14359.995275,-1480.411884,-77682.083497
135.399052,-10658.965565,-4441.235652,-78294.959896
135.402333,-15248.242405,444.123565,-78448.178995
135.405615,-6069.688724,-1036.288319,-79061.055394
135.408896,18357.107362,148.041188,-80440.027290
135.412178,23242.466579,-592.164754,-76762.768900
135.415459,1480.411884,-4589.276840,-79214.274493
135.418741,-13027.624579,-3849.070898,-79980.369991
135.422022,-2812.782580,-1036.288319,-78907.836294
135.425304,10658.965565,148.041188,-77069.207099
135.428585,13323.706956,1332.370696,-79214.274493
135.431867,-7550.100608,2664.741391,-77835.302597
135.435148,3997.112087,-2072.576638,-75843.454302
135.438430,6217.729913,-3997.112087,-81818.999186
135.441711,-444.123565,740.205942,-78448.178995
135.444993,-12287.418637,-7402.059420,-79520.712692
135.448274,-1776.494261,-2664.741391,-78448.178995
135.451556,7105.977043,2516.700203,-78754.617194
135.454837,9474.636058,-2072.576638,-79980.369991
135.458136,6957.935855,-4737.318029,-78448.178995
135.461435,5329.482782,-1036.288319,-78754.617194
135.464734,6365.771101,-3997.112087,-77988.521696
135.468033,1480.411884,-3849.070898,-78601.398095
135.471332,-6513.812290,2960.823768,-78448.178995
135.474631,-5329.482782,740.205942,-79367.493593
135.477931,10066.800811,0.000000,-79214.274493
135.481230,9622.677246,-1776.494261,-78601.398095
135.484529,-3108.864956,-2220.617826,-79520.712692
135.487828,-10510.924376,-1628.453072,-78448.178995
135.491127,-13175.665768,-4145.153275,-77835.302597
135.494426,-740.205942,0.000000,-79673.931792
135.497725,8438.347739,0.000000,-81206.122788
135.501024,296.082377,-2072.576638,-79214.274493
135.504323,-5921.647536,740.205942,-77835.302597
135.507622,-1776.494261,-4293.194464,-78601.398095
135.510921,3256.906145,-888.247130,-78754.617194
135.514220,592.164754,-4885.359217,-78141.740796
135.517519,-9178.553681,-888.247130,-76456.330700
135.520819,-10066.800811,-296.082377,-75996.673402
135.524118,4589.276840,-1036.288319,-80286.808190
135.527417,8290.306550,444.123565,-80899.684589
135.530716,-2516.700203,-2220.617826,-78294.959896
135.534015,-7698.141797,-3849.070898,-77682.083497
135.537314,-15248.242405,-1184.329507,-78294.959896
135.540613,-11695.253884,-1332.370696,-78601.398095
135.543912,-1628.453072,1332.370696,-80440.027290
135.547211,148.041188,1924.535449,-79673.931792
135.550510,3256.906145,-2516.700203,-77222.426198
135.553809,296.082377,-740.205942,-80746.465489
135.557108,-5181.441594,-2516.700203,-77835.302597
135.560407,-10362.883188,-2220.617826,-78294.959896
135.563714,-15396.283594,-888.247130,-79214.274493
135.567021,-2812.782580,740.205942,-80286.808190
135.570329,17764.942608,-1776.494261,-79214.274493
135.573636,20577.725188,-1480.411884,-79980.369991
135.576943,3404.947333,-3256.906145,-79980.369991
135.580250,-13767.830521,-3256.906145,-76303.111601
135.583557,-12879.583391,-2960.823768,-81052.903688
135.586864,10214.842000,1776.494261,-79367.493593
135.590171,15988.448347,-148.041188,-77528.864398
135.593478,2368.659014,-1184.329507,-80746.465489
135.596785,-3404.947333,-1924.535449,-79061.055394
135.600092,-2664.741391,-6069.688724,-77835.302597
135.603399,12435.459826,-2220.617826,-78907.836294
135.606706,8142.265362,-3997.112087,-76149.892501
135.610013,-12139.377449,-888.247130,-78601.398095
135.613320,-2960.823768,1628.453072,-81052.903688
135.616627,11695.253884,-4441.235652,-80440.027290
135.619934,9474.636058,-3997.112087,-82278.656485
135.623241,3552.988522,-4145.153275,-79827.150892
135.626548,0.000000,-3108.864956,-74924.139704
135.629855,-888.247130,-3701.029710,-78754.617194
135.633162,592.164754,-3552.988522,-79367.493593
135.636469,5033.400406,2368.659014,-78601.398095
135.639776,10066.800811,-2368.659014,-81512.560987
135.643083,12287.418637,-2812.782580,-79367.493593
135.646390,1776.494261,-2072.576638,-79061.055394
135.649697,-6513.812290,-4145.153275,-77375.645298
135.653004,-1036.288319,-3552.988522,-79061.055394
135.656311,3849.070898,-592.164754,-79061.055394
135.659618,-2072.576638,-296.082377,-79214.274493
135.662925,-12139.377449,444.123565,-80899.684589
135.666232,-1628.453072,-1628.453072,-78754.617194
135.669520,4589.276840,-3701.029710,-78294.959896
135.672829,-2368.659014,-1924.535449,-78448.178995
135.676139,-9622.677246,-1776.494261,-77682.083497
135.679448,-17616.901420,-592.164754,-79520.712692
135.682758,-3552.988522,592.164754,-79367.493593
135.686068,7846.182985,-1776.494261,-76456.330700
135.689377,1628.453072,-592.164754,-81052.903688
135.692687,4441.235652,-1776.494261,-77375.645298
135.695997,-9178.553681,-3849.070898,-75843.454302
135.699306,-5921.647536,-3256.906145,-80746.465489
135.702616,-5921.647536,740.205942,-78907.836294
135.705925,-6513.812290,-444.123565,-80286.808190
135.709235,-5033.400406,-2368.659014,-80133.589091
135.712545,-1184.329507,-4145.153275,-78448.178995
135.715854,-8586.388927,-1628.453072,-77835.302597
135.719164,-4293.194464,-592.164754,-76762.768900
135.722473,-11251.130318,-3997.112087,-78448.178995
135.725783,-8882.471304,-444.123565,-79827.150892
135.729093,888.247130,296.082377,-80133.589091
135.732402,-296.082377,592.164754,-80440.027290
135.735712,148.041188,-1924.535449,-79214.274493
135.739022,-10066.800811,-2812.782580,-78907.836294
135.742331,-1924.535449,-3108.864956,-76456.330700
135.745641,12435.459826,-148.041188,-81206.122788
135.748950,0.000000,-2220.617826,-79673.931792
135.752260,-5329.482782,0.000000,-78448.178995
135.755570,-3997.112087,-1036.288319,-78294.959896
135.758879,6809.894666,-3701.029710,-79980.369991
135.762189,21169.889941,-3997.112087,-79673.931792
135.765499,9030.512492,-444.123565,-77069.207099
135.768808,-13175.665768,-3701.029710,-78141.740796
135.772118,-4589.276840,296.082377,-79061.055394
135.775427,2664.741391,3108.864956,-79673.931792
135.778737,17764.942608,-2664.741391,-78601.398095
135.782046,2368.659014,-3256.906145,-77069.207099
135.785356,-2812.782580,-1036.288319,-77988.521696
135.788665,1776.494261,-6217.729913,-76762.768900
135.791975,6661.853478,-148.041188,-80286.808190
135.795285,3701.029710,-1184.329507,-79061.055394
135.798594,4589.276840,-1184.329507,-79673.931792
135.801904,7550.100608,2220.617826,-79520.712692
135.805213,12583.501014,-4293.194464,-78448.178995
135.808523,7254.018232,-1924.535449,-80133.589091
135.811832,-592.164754,-2960.823768,-78754.617194
135.815142,-592.164754,-3404.947333,-78601.398095
135.818451,-11251.130318,296.082377,-79827.150892
135.821761,-1480.411884,1480.411884,-79673.931792
135.825070,14508.036463,-2812.782580,-79827.150892
135.828380,9474.636058,-740.205942,-79061.055394
135.831689,-10066.800811,-3256.906145,-78141.740796
135.834999,-19393.395680,-1480.411884,-78448.178995
135.838309,-10955.047942,-3849.070898,-80899.684589
135.841618,5033.400406,592.164754,-78294.959896
135.844928,9030.512492,-148.041188,-79061.055394
135.848237,-5921.647536,0.000000,-79520.712692
135.851547,-9326.594869,-2664.741391,-79214.274493
135.854856,-7105.977043,-2812.782580,-78141.740796
135.858166,-4293.194464,-2072.576638,-78907.836294
135.861475,-6957.935855,-740.205942,-79980.369991
135.864785,-4885.359217,0.000000,-80746.465489
135.868094,-12731.542202,-2368.659014,-79214.274493
135.871404,5921.647536,444.123565,-75537.016103
135.874713,19985.560434,-4145.153275,-82278.656485
135.878023,-4885.359217,-5625.565159,-81818.999186
135.881330,-17320.819043,592.164754,-76456.330700
135.884636,-15544.324782,-1184.329507,-76456.330700
135.887943,-8438.347739,-2664.741391,-80746.465489
135.891250,-4145.153275,592.164754,-80746.465489
135.894557,5329.482782,-2664.741391,-77222.426198
135.897863,3404.947333,-2368.659014,-80593.246390
135.901170,-3256.906145,-2664.741391,-77528.864398
135.904477,-7994.224174,-2960.823768,-79061.055394
135.907784,-18209.066173,-3849.070898,-78754.617194
135.911090,4441.235652,444.123565,-77988.521696
135.914397,20429.683999,-296.082377,-81052.903688
135.917704,5625.565159,2220.617826,-77988.521696
135.921010,1184.329507,-5477.523971,-77528.864398
135.924317,-10658.965565,-2812.782580,-78601.398095
135.927624,-888.247130,-1332.370696,-78448.178995
135.930931,13027.624579,-1628.453072,-79827.150892
135.934237,5033.400406,-1480.411884,-79061.055394
135.937544,-4737.318029,1480.411884,-77835.302597
135.940851,5181.441594,-2664.741391,-79061.055394
135.944157,9622.677246,-2516.700203,-80133.589091
135.947464,9918.759623,-3997.112087,-78448.178995
135.950771,-3108.864956,-2516.700203,-76762.768900
135.954078,-10214.842000,-2960.823768,-79827.150892
135.957384,1184.329507,-1332.370696,-79520.712692
135.960691,1184.329507,2516.700203,-82278.656485
135.963998,10362.883188,-1776.494261,-79214.274493
135.967304,11399.171507,-5181.441594,-76303.111601
135.970611,1924.535449,-3108.864956,-79214.274493
135.973918,-1776.494261,-296.082377,-81206.122788
135.977225,2812.782580,-3849.070898,-79980.369991
135.980531,3997.112087,740.205942,-81512.560987
135.983838,444.123565,1480.411884,-79061.055394
135.987047,1184.329507,-5033.400406,-77069.207099
135.990255,12879.583391,-3256.906145,-77682.083497
135.993464,10807.006753,-1924.535449,-79367.493593
135.996673,-11843.295072,-4737.318029,-78601.398095
135.999881,-21762.054695,-148.041188,-78601.398095
136.003090,-14508.036463,-1184.329507,-80593.246390
136.006299,7698.141797,2516.700203,-80440.027290
136.009507,11843.295072,-740.205942,-77375.645298
136.012716,1924.535449,-2960.823768,-79367.493593
136.015925,-10807.006753,-2516.700203,-80440.027290
136.019133,-9474.636058,-2220.617826,-77988.521696
136.022342,444.123565,-3552.988522,-77222.426198
136.025551,888.247130,-148.041188,-78294.959896
136.028759,2368.659014,-1332.370696,-80593.246390
136.031968,-2368.659014,-592.164754,-78294.959896
136.035177,8734.430116,-1776.494261,-79980.369991
136.038385,-1776.494261,0.000000,-79520.712692
136.041594,-4441.235652,-148.041188,-77222.426198
136.044803,-16136.489536,-4145.153275,-78754.617194
136.048012,-17912.983796,-1036.288319,-79367.493593
136.051220,-2220.617826,2960.823768,-78754.617194
136.054429,6513.812290,-1480.411884,-79520.712692
136.057638,2812.782580,-2960.823768,-80899.684589
136.060846,-1776.494261,-1184.329507,-79520.712692
136.064055,-12139.377449,-2960.823768,-79061.055394
136.067264,-12139.377449,-1924.535449,-77988.521696
136.070472,-7698.141797,444.123565,-80899.684589
136.073681,16728.654289,-148.041188,-78907.836294
136.076890,21614.013506,148.041188,-77835.302597
136.080098,5033.400406,-3256.906145,-80133.589091
136.083307,-13323.706956,-2368.659014,-75843.454302
136.086516,-12731.542202,-2812.782580,-79673.931792
136.089741,5477.523971,-1184.329507,-79673.931792
136.092967,15396.283594,-592.164754,-79061.055394
136.096192,8142.265362,-148.041188,-79673.931792
136.099417,-2812.782580,296.082377,-79520.712692
136.102643,7105.977043,-3997.112087,-78294.959896
136.105868,9178.553681,-1332.370696,-76303.111601
136.109094,1924.535449,-4441.235652,-81512.560987
136.112319,-8882.471304,740.205942,-80746.465489
136.115545,-6513.812290,-1776.494261,-79367.493593
136.118770,6661.853478,-592.164754,-80133.589091
136.121996,12435.459826,-2516.700203,-78907.836294
136.125221,10362.883188,-3552.988522,-81972.218286
136.128447,2072.576638,-4145.153275,-78754.617194
136.131672,-148.041188,-592.164754,-79061.055394
136.134898,4589.276840,-1924.535449,-78907.836294
136.138123,7994.224174,0.000000,-78294.959896
136.141349,-888.247130,1924.535449,-78294.959896
136.144574,-1480.411884,-2368.659014,-77069.207099
136.147800,10362.883188,-3404.947333,-79673.931792
136.151025,5181.441594,-1628.453072,-80746.465489
136.154251,-6513.812290,-3404.947333,-77835.302597
136.157476,-23982.672521,-4293.194464,-79520.712692
136.160702,-16728.654289,-1480.411884,-78448.178995
136.163927,5773.606348,1480.411884,-79673.931792
136.167153,14952.160028,-2220.617826,-79673.931792
136.170378,2664.741391,-2960.823768,-77222.426198
136.173604,-14063.912898,-2072.576638,-79827.150892
136.176829,-13767.830521,-1924.535449,-79367.493593
136.180054,3552.988522,-2220.617826,-76609.549800
136.183280,2072.576638,2072.576638,-79827.150892
136.186505,-2072.576638,1776.494261,-78601.398095
136.189731,740.205942,-1776.494261,-78141.740796
136.192884,3997.112087,-3849.070898,-80746.465489
136.196037,-3108.864956,-3108.864956,-79520.712692
136.199190,-6809.894666,-1628.453072,-78448.178995
136.202343,-16876.695478,-3997.112087,-79827.150892
136.205497,-14656.077652,148.041188,-78448.178995
136.208650,-2516.700203,-1332.370696,-79520.712692
136.211803,4441.235652,-1924.535449,-79214.274493
136.214956,6069.688724,-2664.741391,-77682.083497
136.218109,-3552.988522,-2220.617826,-79367.493593
136.221262,-17172.777854,-2664.741391,-78294.959896
136.224415,-19245.354492,-3701.029710,-80593.246390
136.227568,3701.029710,0.000000,-78601.398095
136.230722,22354.219448,-296.082377,-81512.560987
136.233875,16728.654289,-1184.329507,-78601.398095
136.237028,-5477.523971,-3256.906145,-77682.083497
136.240181,-10955.047942,-2960.823768,-80133.589091
136.243334,148.041188,-3256.906145,-78141.740796
136.246487,12287.418637,-1332.370696,-80286.808190
136.249640,16284.530724,592.164754,-79520.712692
136.252793,-1480.411884,148.041188,-78907.836294
136.255947,4885.359217,-3256.906145,-77682.083497
136.259100,11991.336260,-2072.576638,-80440.027290
136.262253,9178.553681,-444.123565,-79980.369991
136.265406,-5773.606348,-1480.411884,-78601.398095
136.268503,-11843.295072,-2664.741391,-78907.836294
136.271601,-5477.523971,-2220.617826,-76149.892501
136.274698,8734.430116,-1332.370696,-80286.808190
136.277796,14063.912898,-740.205942,-79367.493593
136.280893,7846.182985,-2664.741391,-79520.712692
136.283991,3552.988522,-2368.659014,-79520.712692
136.287088,296.082377,-2664.741391,-77835.302597
136.290186,6217.729913,148.041188,-77528.864398
136.293283,-7550.100608,296.082377,-77835.302597
136.296381,-4293.194464,-296.082377,-79367.493593
136.299478,12879.583391,-2664.741391,-79827.150892
136.302576,8586.388927,-1628.453072,-78907.836294
136.305673,-5625.565159,-1628.453072,-80440.027290
136.308771,-19689.478057,-3552.988522,-75690.235202
136.311868,-14211.954086,-1776.494261,-77988.521696
136.314966,2516.700203,1036.288319,-80746.465489
136.318063,4885.359217,148.041188,-80133.589091
136.321161,3552.988522,-888.247130,-78141.740796
136.324258,-8142.265362,-3849.070898,-78294.959896
136.327356,-12139.377449,-2220.617826,-77528.864398
136.330453,-9474.636058,592.164754,-75996.673402
136.333551,-148.041188,-3997.112087,-78448.178995
136.336648,-7105.977043,888.247130,-79980.369991
136.339746,-6809.894666,-1480.411884,-80593.246390
136.342843,9474.636058,-740.205942,-74770.920605
136.345941,6365.771101,-1628.453072,-79214.274493
136.349038,-6217.729913,-4885.359217,-80133.589091
136.352136,-19837.519246,-2516.700203,-74617.701505
136.355233,-16284.530724,-1480.411884,-79367.493593
136.358331,-3404.947333,-296.082377,-77375.645298
136.361428,7698.141797,2516.700203,-79673.931792
136.364526,4441.235652,-1332.370696,-79214.274493
136.367663,-5477.523971,-2664.741391,-78907.836294
136.370800,-18653.189738,-740.205942,-81206.122788
136.373937,-1628.453072,-3552.988522,-75996.673402
136.377074,14804.118840,-2664.741391,-79061.055394
136.380211,15100.201217,1184.329507,-79520.712692
136.383348,-3256.906145,-1480.411884,-78601.398095
136.386486,-10955.047942,148.041188,-79214.274493
136.389623,6069.688724,-3997.112087,-80133.589091
136.392760,19097.313304,-1184.329507,-78141.740796
136.395897,12435.459826,-2072.576638,-77528.864398
136.399034,-10066.800811,-1628.453072,-78754.617194
136.402171,-15248.242405,148.041188,-80899.684589
136.405308,3108.864956,1332.370696,-80286.808190
136.408445,17172.777854,-1628.453072,-77988.521696
136.411583,8142.265362,-3997.112087,-77988.521696
136.414720,-1184.329507,-1332.370696,-77682.083497
136.417857,-3552.988522,-2960.823768,-81206.122788
136.420994,2812.782580,148.041188,-79673.931792
136.424131,11991.336260,444.123565,-81359.341888
136.427268,7994.224174,-888.247130,-79673.931792
136.430405,5921.647536,-2960.823768,-77069.207099
136.433542,10214.842000,-2664.741391,-79520.712692
136.436680,3701.029710,-2812.782580,-77682.083497
136.439817,-5477.523971,-2812.782580,-80899.684589
136.442954,-9030.512492,-2664.741391,-78907.836294
136.446091,5181.441594,-888.247130,-77375.645298
136.449228,3997.112087,1184.329507,-79673.931792
136.452365,-6513.812290,-888.247130,-79827.150892
136.455502,-7698.141797,-2368.659014,-78754.617194
136.458639,-6217.729913,-2812.782580,-78448.178995
136.461777,-2368.659014,-3108.864956,-79061.055394
136.464914,-592.164754,444.123565,-77682.083497
136.468083,-12731.542202,-444.123565,-78294.959896
136.471252,-6661.853478,1628.453072,-80440.027290
136.474422,2072.576638,-2664.741391,-78601.398095
136.477591,1184.329507,-4737.318029,-80593.246390
136.480760,592.164754,-2368.659014,-78294.959896
136.483929,-8290.306550,296.082377,-75996.673402
136.487099,-8142.265362,-3552.988522,-79214.274493
136.490268,-6661.853478,2516.700203,-79367.493593
136.493437,-2664.741391,1776.494261,-79980.369991
136.496606,-4293.194464,-3256.906145,-79367.493593
136.499776,-6809.894666,-3997.112087,-78448.178995
136.502945,-10658.965565,-2072.576638,-78448.178995
136.506114,3256.906145,-2664.741391,-78601.398095
136.509284,-4737.318029,-3552.988522,-79367.493593
136.512453,-10214.842000,148.041188,-78907.836294
136.515622,-7550.100608,1184.329507,-79367.493593
136.518791,-4737.318029,-3108.864956,-78907.836294
136.521961,21614.013506,-2516.700203,-78601.398095
136.525130,23094.425390,-1332.370696,-79214.274493
136.528299,-6069.688724,-2220.617826,-77682.083497
136.531469,-20281.642811,-1776.494261,-80133.589091
136.534638,-10214.842000,-2368.659014,-79214.274493
136.537807,18949.272115,3108.864956,-80593.246390
136.540976,27091.537477,148.041188,-78294.959896
136.544146,8438.347739,-5329.482782,-79214.274493
136.547315,-9178.553681,-3108.864956,-82431.875585
136.550484,-2516.700203,-3108.864956,-77222.426198
136.553653,7254.018232,-1776.494261,-76149.892501
136.556823,1628.453072,1036.288319,-79520.712692
136.559992,-1184.329507,-2368.659014,-79367.493593
136.563161,1628.453072,-2812.782580,-80746.465489
136.566331,10658.965565,-2516.700203,-80593.246390
136.569524,11695.253884,-3552.988522,-77682.083497
136.572718,2812.782580,-2516.700203,-77069.207099
136.575912,-4441.235652,-2516.700203,-77222.426198
136.579106,-592.164754,-1924.535449,-76915.987999
136.582300,4589.276840,3256.906145,-80593.246390
136.585493,5181.441594,-2664.741391,-81512.560987
136.588687,11695.253884,-1776.494261,-79061.055394
136.591881,8142.265362,-1776.494261,-79367.493593
136.595075,-9622.677246,-2664.741391,-77528.864398
136.598269,-19393.395680,-2220.617826,-78907.836294
136.601462,-13175.665768,-1184.329507,-78601.398095
136.604656,1776.494261,-1036.288319,-80133.589091
136.607850,9918.759623,-296.082377,-80746.465489
136.611044,4737.318029,-2664.741391,-78448.178995
136.614238,-11991.336260,-4145.153275,-77835.302597
136.617431,-9770.718434,-2516.700203,-77835.302597
136.620625,-4293.194464,-5921.647536,-77682.083497
136.623819,-5625.565159,-1036.288319,-80746.465489
136.627013,-148.041188,1036.288319,-81206.122788
136.630207,-888.247130,740.205942,-78448.178995
136.633400,17616.901420,-5921.647536,-77375.645298
136.636594,-7550.100608,-2368.659014,-80593.246390
136.639788,-12287.418637,-1036.288319,-79061.055394
136.642982,-15988.448347,-2516.700203,-79980.369991
136.646176,-15988.448347,444.123565,-79980.369991
136.649370,2220.617826,1036.288319,-80746.465489
136.652563,11843.295072,-1776.494261,-76915.987999
136.655757,-1628.453072,-2664.741391,-79673.931792
136.658951,-7105.977043,-4589.276840,-78294.959896
136.662145,-16136.489536,-2220.617826,-77988.521696
136.665339,6809.894666,-3108.864956,-80593.246390
136.668532,21021.848753,444.123565,-79367.493593
136.671733,1628.453072,1480.411884,-78907.836294
136.674947,-10510.924376,-888.247130,-77988.521696
136.678161,-3997.112087,-4737.318029,-80440.027290
136.681374,9622.677246,-2516.700203,-78907.836294
136.684588,20725.766376,-2368.659014,-77835.302597
136.687802,-1332.370696,-5329.482782,-78294.959896
136.691015,-18061.024985,-296.082377,-79061.055394
136.694229,-8438.347739,740.205942,-81512.560987
136.697443,11991.336260,2664.741391,-79061.055394
136.700656,18209.066173,-3552.988522,-81052.903688
136.703870,-4145.153275,-444.123565,-79214.274493
136.707083,-13915.871710,-1924.535449,-75230.577904
136.710297,444.123565,-1776.494261,-80440.027290
136.713511,8586.388927,-888.247130,-80440.027290
136.716724,9770.718434,2664.741391,-81818.999186
136.719938,9178.553681,-1628.453072,-77528.864398
136.723152,3701.029710,-4589.276840,-77222.426198
136.726365,2664.741391,-888.247130,-78448.178995
136.729579,-2368.659014,-4589.276840,-76456.330700
136.732793,3552.988522,-3552.988522,-80746.465489
136.736006,1628.453072,2664.741391,-78601.398095
136.739220,-15100.201217,-296.082377,-78448.178995
136.742433,-13471.748144,-740.205942,-79673.931792
136.745647,-1628.453072,-148.041188,-77375.645298
136.748861,4737.318029,-4293.194464,-78907.836294
136.752074,-3997.112087,-2072.576638,-79061.055394
136.755288,-14359.995275,-2812.782580,-79827.150892
136.758502,-15692.365970,-740.205942,-78141.740796
136.761715,4737.318029,1480.411884,-78601.398095
136.764929,7105.977043,-888.247130,-77528.864398
136.768143,3552.988522,-2664.741391,-78448.178995
136.771356,1184.329507,-3404.947333,-79520.712692
136.774585,-2812.782580,-3552.988522,-77222.426198
136.777814,-7698.141797,-3701.029710,-77682.083497
136.781043,-7698.141797,-888.247130,-78907.836294
136.784272,-12435.459826,1184.329507,-80133.589091
136.787500,-9326.594869,-2368.659014,-79061.055394
136.790729,2812.782580,-2812.782580,-78294.959896
136.793958,3701.029710,-3997.112087,-79980.369991
136.797187,-1628.453072,-1924.535449,-78907.836294
136.800416,-15100.201217,-3404.947333,-77835.302597
136.803645,-22206.178260,-592.164754,-78907.836294
136.806874,7402.059420,296.082377,-78754.617194
136.810102,26795.455100,1332.370696,-80286.808190
136.813331,16432.571912,-3404.947333,-78601.398095
136.816560,-5773.606348,-2664.741391,-78754.617194
136.819789,-16136.489536,-1628.453072,-76762.768900
136.823018,-1332.370696,-3404.947333,-79520.712692
136.826247,18801.230927,-1184.329507,-78294.959896
136.829475,17616.901420,1332.370696,-79827.150892
136.832704,1924.535449,-2664.741391,-77835.302597
136.835933,-1628.453072,-3108.864956,-78294.959896
136.839162,11399.171507,-148.041188,-79673.931792
136.842391,10658.965565,-4589.276840,-77682.083497
136.845620,-11695.253884,-2812.782580,-80899.684589
136.848849,-14656.077652,1628.453072,-78141.740796
136.852077,7846.182985,592.164754,-76762.768900
136.855306,18061.024985,-1776.494261,-82125.437386
136.858535,14508.036463,-3108.864956,-80440.027290
136.861764,6513.812290,-2812.782580,-75843.454302
136.864993,-2220.617826,-3701.029710,-78754.617194
136.868222,-10955.047942,-2220.617826,-77222.426198
136.871451,-1776.494261,740.205942,-77528.864398
136.874679,13323.706956,296.082377,-81665.780087
136.877852,740.205942,2220.617826,-80440.027290
136.881025,-5181.441594,-1628.453072,-79061.055394
136.884198,-16284.530724,-2960.823768,-79827.150892
136.887370,-4441.235652,-740.205942,-76609.549800
136.890543,4737.318029,-1480.411884,-77222.426198
136.893716,-5033.400406,-3552.988522,-78601.398095
136.896888,-12435.459826,1628.453072,-80133.589091
136.900061,-9918.759623,-1480.411884,-81052.903688
136.903234,888.247130,-592.164754,-79367.493593
136.906407,3701.029710,-1628.453072,-79673.931792
136.909579,592.164754,-3108.864956,-79367.493593
136.912752,-12435.459826,-1776.494261,-78294.959896
136.915925,-2368.659014,-1332.370696,-77069.207099
136.919097,-5773.606348,-296.082377,-78448.178995
136.922270,-5181.441594,2072.576638,-79367.493593
136.925443,-6365.771101,-3108.864956,-77222.426198
136.928616,-9770.718434,-2812.782580,-79214.274493
136.931788,1332.370696,-1628.453072,-78294.959896
136.934961,-1184.329507,-1036.288319,-79061.055394
136.938134,-12731.542202,-1924.535449,-79367.493593
136.941306,-10510.924376,1332.370696,-77682.083497
136.944479,-2516.700203,-2516.700203,-77682.083497
136.947652,24426.796086,-2220.617826,-77988.521696
136.950825,22502.260637,-1924.535449,-81206.122788
136.953997,-3552.988522,-3256.906145,-79061.055394
136.957170,-22502.260637,-2812.782580,-77988.521696
136.960343,-6217.729913,-2664.741391,-80746.465489
136.963516,17468.860231,2220.617826,-77528.864398
136.966688,20429.683999,-444.123565,-77682.083497
136.969861,4589.276840,-3404.947333,-80440.027290
136.973034,-2220.617826,-1776.494261,-80133.589091
136.976206,1924.535449,-2812.782580,-81972.218286
136.979402,6513.812290,-2368.659014,-79061.055394
136.982598,-6513.812290,-1924.535449,-76303.111601
136.985794,-17468.860231,3849.070898,-79061.055394
136.988989,12435.459826,-148.041188,-78141.740796
136.992185,20133.601622,-4589.276840,-79520.712692
136.995381,15396.283594,-592.164754,-81665.780087
136.998576,5329.482782,-1628.453072,-77069.207099
137.001772,-9474.636058,-2220.617826,-79367.493593
137.004968,-12139.377449,-1924.535449,-79061.055394
137.008164,3404.947333,740.205942,-78448.178995
137.011359,19541.436869,-2072.576638,-81206.122788
137.014555,4293.194464,-1776.494261,-77375.645298
137.017751,-10955.047942,-1332.370696,-78141.740796
137.020947,-20725.766376,-2960.823768,-78601.398095
137.024142,-8734.430116,-2516.700203,-79520.712692
137.027338,7698.141797,740.205942,-78294.959896
137.030534,-3849.070898,-1628.453072,-77375.645298
137.033729,-11695.253884,0.000000,-80746.465489
137.036925,-3108.864956,-3552.988522,-78448.178995
137.040121,888.247130,-3404.947333,-78601.398095
137.043317,1776.494261,-2516.700203,-77222.426198
137.046512,-9326.594869,-2960.823768,-77835.302597
137.049708,-10362.883188,592.164754,-80133.589091
137.052904,-740.205942,1628.453072,-79980.369991
137.056100,740.205942,296.082377,-79827.150892
137.059295,-3552.988522,-2516.700203,-81052.903688
137.062491,-13471.748144,-1924.535449,-78907.836294
137.065687,-9622.677246,-4885.359217,-77682.083497
137.068882,2516.700203,-3108.864956,-76456.330700
137.072078,-4441.235652,-740.205942,-78601.398095
137.075274,-8438.347739,1036.288319,-80286.808190
137.078470,-14063.912898,-2072.576638,-79520.712692
137.081620,8290.306550,-1628.453072,-78754.617194
137.084770,28275.866984,-2516.700203,-80286.808190
137.087920,10066.800811,-1628.453072,-78294.959896
137.091070,-14656.077652,-2072.576638,-77988.521696
137.094220,-19245.354492,-148.041188,-78601.398095
137.097370,2812.782580,740.205942,-79673.931792
137.100520,24722.878463,1480.411884,-79827.150892
137.103670,19689.478057,-3404.947333,-77682.083497
137.106820,-1776.494261,-3404.947333,-77375.645298
137.109970,-3849.070898,-1036.288319,-79061.055394
137.113120,-1480.411884,-888.247130,-76762.768900
137.116270,-3108.864956,-2664.741391,-79520.712692
137.119420,-2072.576638,1036.288319,-81359.341888
137.122570,5329.482782,1036.288319,-80899.684589
137.125720,14952.160028,-1776.494261,-81972.218286
137.128870,19245.354492,-2220.617826,-78294.959896
137.132020,9622.677246,-2368.659014,-75690.235202
137.135169,-8290.306550,-3849.070898,-77835.302597
137.138319,-13471.748144,-3701.029710,-77682.083497
137.141469,-2368.659014,1628.453072,-79673.931792
137.144619,18061.024985,-1184.329507,-79980.369991
137.147769,13027.624579,-2960.823768,-78448.178995
137.150919,-8586.388927,-2960.823768,-78448.178995
137.154069,-22058.137072,-4293.194464,-77682.083497
137.157244,-12139.377449,-1332.370696,-79980.369991
137.160419,6069.688724,-888.247130,-79827.150892
137.163593,592.164754,-148.041188,-77835.302597
137.166768,-9622.677246,740.205942,-80440.027290
137.169942,-14359.995275,-2516.700203,-79367.493593
137.173117,-1628.453072,-3552.988522,-81512.560987
137.176291,-148.041188,-2516.700203,-77375.645298
137.179466,-4737.318029,-1332.370696,-78754.617194
137.182641,-9770.718434,-2664.741391,-79520.712692
137.185815,-1036.288319,740.205942,-77835.302597
137.188990,-3997.112087,1036.288319,-80440.027290
137.192164,-4885.359217,-2220.617826,-78601.398095
137.195339,-9178.553681,-3701.029710,-79061.055394
137.198513,-6809.894666,0.000000,-78294.959896
137.201688,-5181.441594,-3849.070898,-79673.931792
137.204863,-8586.388927,-3997.112087,-79520.712692
137.208037,-12139.377449,2812.782580,-79673.931792
137.211212,-9918.759623,-2516.700203,-80440.027290
137.214386,18505.148550,-2220.617826,-78141.740796
137.217561,27979.784608,-1036.288319,-77835.302597
137.220735,3552.988522,-3849.070898,-79520.712692
137.223910,-16876.695478,-2220.617826,-77835.302597
137.227085,-15544.324782,-1776.494261,-80593.246390
137.230259,6513.812290,740.205942,-80286.808190
137.233434,25611.125593,2812.782580,-80746.465489
137.236608,9178.553681,-3552.988522,-77528.864398
137.239783,-6217.729913,-3404.947333,-78448.178995
137.242957,-3108.864956,-740.205942,-79214.274493
137.246132,10066.800811,-3108.864956,-79367.493593
137.249307,-6661.853478,-3256.906145,-81512.560987
137.252481,-11399.171507,2072.576638,-78907.836294
137.255656,12731.542202,-1332.370696,-76762.768900
137.258792,21169.889941,-2072.576638,-81512.560987
137.261929,16432.571912,-3552.988522,-78907.836294
137.265065,9178.553681,-3404.947333,-77835.302597
137.268202,-15692.365970,-3552.988522,-79980.369991
137.271339,-13471.748144,1332.370696,-77069.207099
137.274475,7550.100608,1184.329507,-80440.027290
137.277612,13471.748144,1480.411884,-79520.712692
137.280748,1480.411884,-3552.988522,-77528.864398
137.283885,-15396.283594,-3552.988522,-77835.302597
137.287021,-11251.130318,-2812.782580,-79214.274493
137.290158,2664.741391,0.000000,-78907.836294
137.293295,4885.359217,-2664.741391,-79520.712692
137.296431,-3256.906145,1628.453072,-76915.987999
137.299568,-17912.983796,2516.700203,-79827.150892
137.302704,-4441.235652,-4145.153275,-81512.560987
137.305841,12731.542202,-2664.741391,-78141.740796
137.308978,-8290.306550,-2072.576638,-77375.645298
137.312114,-10807.006753,-1184.329507,-77835.302597
137.315251,-2220.617826,-2368.659014,-79980.369991
137.318387,-6661.853478,-1332.370696,-79673.931792
137.321524,-4293.194464,3552.988522,-77528.864398
137.324660,-5477.523971,-2960.823768,-79214.274493
137.327797,-2072.576638,-6365.771101,-79061.055394
137.330934,1776.494261,0.000000,-80286.808190
137.334070,-5181.441594,-2812.782580,-78448.178995
137.337207,-11399.171507,-1036.288319,-78601.398095
137.340343,-15100.201217,0.000000,-78448.178995
137.343480,11843.295072,-1036.288319,-78907.836294
137.346616,26499.372724,-888.247130,-79673.931792
137.349753,9770.718434,-2072.576638,-79214.274493
137.352890,-6513.812290,-4441.235652,-79980.369991
137.356026,-10658.965565,-3404.947333,-77835.302597
137.359134,3108.864956,-2960.823768,-79520.712692
137.362243,17616.901420,1924.535449,-78448.178995
137.365351,5329.482782,444.123565,-77682.083497
137.368459,-1036.288319,-2368.659014,-78907.836294
137.371567,2664.741391,-2220.617826,-80440.027290
137.374675,9326.594869,-2516.700203,-80440.027290
137.377784,-3108.864956,-2960.823768,-79061.055394
137.380892,-13471.748144,-4885.359217,-78294.959896
137.384000,1776.494261,1036.288319,-77375.645298
137.387108,18357.107362,-296.082377,-81206.122788
137.390216,16876.695478,-3404.947333,-81052.903688
137.393325,9326.594869,-2368.659014,-78754.617194
137.396433,-8438.347739,-3256.906145,-79520.712692
137.399541,-10362.883188,-2072.576638,-77375.645298
137.402649,8882.471304,-1628.453072,-80286.808190
137.405757,7698.141797,148.041188,-80899.684589
137.408866,-10658.965565,1184.329507,-78907.836294
137.411974,-16432.571912,-1184.329507,-77682.083497
137.415082,-4145.153275,-2960.823768,-79673.931792
137.418190,6513.812290,-1332.370696,-79367.493593
137.421298,2072.576638,-3108.864956,-77069.207099
137.424407,-14508.036463,-3701.029710,-79061.055394
137.427515,-24278.754898,592.164754,-79061.055394
137.430623,-6217.729913,-1184.329507,-81665.780087
137.433731,5477.523971,296.082377,-77069.207099
137.436839,9918.759623,-2960.823768,-77988.521696
137.439948,-12139.377449,-888.247130,-81512.560987
137.443056,-13619.789333,-2072.576638,-76915.987999
137.446164,-11399.171507,-2220.617826,-79673.931792
137.449272,-18061.024985,-1332.370696,-79520.712692
137.452380,-9178.553681,740.205942,-77682.083497
137.455489,3701.029710,-3997.112087,-78907.836294
137.458576,1036.288319,-888.247130,-78448.178995
137.461664,-1776.494261,-1036.288319,-78754.617194
137.464752,-16136.489536,-3552.988522,-79061.055394
137.467839,1036.288319,-1776.494261,-79520.712692
137.470927,17468.860231,1628.453072,-77682.083497
137.474014,6069.688724,888.247130,-78907.836294
137.477102,-2072.576638,-2220.617826,-78601.398095
137.480190,-5033.400406,-2960.823768,-78907.836294
137.483277,1776.494261,-3997.112087,-80133.589091
137.486365,19393.395680,-1184.329507,-77682.083497
137.489453,0.000000,-592.164754,-80746.465489
137.492540,-8586.388927,-1480.411884,-77682.083497
137.495628,-6661.853478,148.041188,-77988.521696
137.498715,8438.347739,148.041188,-80286.808190
137.501803,7402.059420,-3997.112087,-78294.959896
137.504891,4737.318029,-1480.411884,-81972.218286
137.507978,740.205942,-1184.329507,-76762.768900
137.511066,6217.729913,-3849.070898,-80133.589091
137.514154,8142.265362,296.082377,-80286.808190
137.517241,7254.018232,-592.164754,-78294.959896
137.520329,-6365.771101,-1628.453072,-79827.150892
137.523416,-740.205942,-2664.741391,-79061.055394
137.526504,20429.683999,-3256.906145,-80440.027290
137.529592,592.164754,-2220.617826,-80593.246390
137.532679,-15988.448347,-2220.617826,-78294.959896
137.535767,-25907.207970,-444.123565,-77222.426198
137.538855,-9622.677246,-1036.288319,-78601.398095
137.541942,11843.295072,1924.535449,-79214.274493
137.545030,11991.336260,-2516.700203,-79673.931792
137.548117,-10214.842000,-4737.318029,-79980.369991
137.551205,-15692.365970,-2072.576638,-76915.987999
137.554293,-9178.553681,-2072.576638,-80746.465489
137.557366,-296.082377,-1480.411884,-78294.959896
137.560440,-1776.494261,-1036.288319,-77835.302597
137.563513,-6217.729913,148.041188,-78907.836294
137.566586,3404.947333,-3849.070898,-76762.768900
137.569660,-4145.153275,-1036.288319,-83351.190182
137.572733,-14656.077652,-2516.700203,-78141.740796
137.575806,-11251.130318,-5181.441594,-77988.521696
137.578880,-6513.812290,-1184.329507,-79673.931792
137.581953,-4145.153275,1628.453072,-76456.330700
137.585027,-4145.153275,148.041188,-80593.246390
137.588100,-3256.906145,-4145.153275,-79520.712692
137.591173,20133.601622,-3256.906145,-80440.027290
137.594247,17320.819043,-3256.906145,-79367.493593
137.597320,-6513.812290,-2812.782580,-77988.521696
137.600394,-13175.665768,1628.453072,-77835.302597
137.603467,-2960.823768,444.123565,-79827.150892
137.606540,14508.036463,888.247130,-80133.589091
137.609614,23982.672521,-1184.329507,-79214.274493
137.612687,4885.359217,-3256.906145,-79214.274493
137.615761,-4589.276840,-1036.288319,-76456.330700
137.618834,3552.988522,-444.123565,-76609.549800
137.621907,1628.453072,-1628.453072,-78141.740796
137.624981,-8734.430116,888.247130,-82431.875585
137.628054,5477.523971,0.000000,-78448.178995
137.631128,18801.230927,-1480.411884,-78754.617194
137.634201,18357.107362,-3849.070898,-81972.218286
137.637274,7994.224174,-2664.741391,-75383.797003
137.640348,-10807.006753,-2812.782580,-76915.987999
137.643421,-14508.036463,-4885.359217,-76609.549800
137.646495,6365.771101,148.041188,-78294.959896
137.649568,13767.830521,1332.370696,-81512.560987
137.652641,1332.370696,-1628.453072,-78141.740796
137.655692,-18357.107362,-3552.988522,-78141.740796
137.658757,-10066.800811,-2220.617826,-77988.521696
137.661821,-3404.947333,-2368.659014,-78754.617194
137.664885,2516.700203,-1480.411884,-82125.437386
137.667949,-3256.906145,1480.411884,-79367.493593
137.671014,-11547.212695,-148.041188,-78294.959896
137.674078,-296.082377,1332.370696,-79827.150892
137.677142,11103.089130,-3108.864956,-81972.218286
137.680207,-8290.306550,-2516.700203,-77069.207099
137.683271,-12139.377449,-148.041188,-76149.892501
137.686335,-7254.018232,-2812.782580,-78754.617194
137.689399,-12287.418637,592.164754,-78448.178995
137.692464,-4441.235652,1628.453072,-78294.959896
137.695528,296.082377,-2220.617826,-79367.493593
137.698592,740.205942,-4145.153275,-79827.150892
137.701656,-4145.153275,-888.247130,-78448.178995
137.704721,-11843.295072,-2072.576638,-77069.207099
137.707785,-12287.418637,-5033.400406,-79980.369991
137.710849,13175.665768,-148.041188,-78907.836294
137.713914,18505.148550,1036.288319,-79827.150892
137.716978,4737.318029,-3256.906145,-79827.150892
137.720042,-8734.430116,-2812.782580,-79980.369991
137.723106,148.041188,-3997.112087,-80286.808190
137.726171,10955.047942,-2072.576638,-77069.207099
137.729235,6217.729913,-1480.411884,-78294.959896
137.732299,-3552.988522,-1184.329507,-80593.246390
137.735363,1184.329507,888.247130,-77988.521696
137.738428,3256.906145,-1776.494261,-80133.589091
137.741492,8882.471304,0.000000,-79827.150892
137.744556,-444.123565,-2368.659014,-78754.617194
137.747620,-1924.535449,-3552.988522,-78141.740796
137.750685,6069.688724,-3404.947333,-78907.836294
137.753799,9622.677246,296.082377,-77835.302597
137.756912,11991.336260,296.082377,-80133.589091
137.760026,-2220.617826,-2072.576638,-77375.645298
137.763140,1924.535449,-2812.782580,-78141.740796
137.766254,14063.912898,-2960.823768,-80593.246390
137.769368,-1480.411884,-3552.988522,-79061.055394
137.772481,-15248.242405,-740.205942,-78907.836294
137.775595,-23390.507767,-740.205942,-76915.987999
137.778709,-4441.235652,148.041188,-78294.959896
137.781823,13619.789333,0.000000,-79520.712692
137.784937,9030.512492,-3256.906145,-80899.684589
137.788050,-10510.924376,-5033.400406,-79214.274493
137.791164,-18061.024985,-3701.029710,-77988.521696
137.794278,-8290.306550,-2960.823768,-79980.369991
137.797392,-1776.494261,444.123565,-76915.987999
137.800506,5625.565159,-1480.411884,-78601.398095
137.803619,-6809.894666,-1776.494261,-77988.521696
137.806733,-3256.906145,-3108.864956,-78448.178995
137.809847,-8290.306550,-1628.453072,-79214.274493
137.812961,-12435.459826,-2072.576638,-77835.302597
137.816075,-9770.718434,-2664.741391,-78294.959896
137.819189,-7698.141797,444.123565,-78907.836294
137.822302,-5181.441594,3404.947333,-80746.465489
137.825416,-3404.947333,-4145.153275,-79061.055394
137.828530,21614.013506,-3404.947333,-77835.302597
137.831644,20429.683999,-296.082377,-80746.465489
137.834758,1036.288319,-2220.617826,-76915.987999
137.837871,-12583.501014,-4737.318029,-79367.493593
137.840985,-7402.059420,3108.864956,-79520.712692
137.844099,8882.471304,1480.411884,-79061.055394
137.847213,24426.796086,-2960.823768,-78294.959896
137.850327,9178.553681,-4441.235652,-78294.959896
137.853481,-3997.112087,-2220.617826,-79673.931792
137.856635,-2960.823768,-2664.741391,-78141.740796
137.859789,-3108.864956,-3108.864956,-80133.589091
137.862943,4441.235652,-1924.535449,-77835.302597
137.866097,7550.100608,-888.247130,-80286.808190
137.869251,13619.789333,-888.247130,-79367.493593
137.872405,20725.766376,-3849.070898,-76762.768900
137.875559,10510.924376,-1924.535449,-81972.218286
137.878713,-13323.706956,-1480.411884,-79520.712692
137.881867,-11695.253884,-3108.864956,-78448.178995
137.885022,6217.729913,-1628.453072,-79214.274493
137.888176,7846.182985,1184.329507,-78907.836294
137.891330,-1628.453072,-888.247130,-78448.178995
137.894484,-14359.995275,-1480.411884,-77222.426198
137.897638,-5477.523971,-1628.453072,-79367.493593
137.900792,4145.153275,-3108.864956,-79214.274493
137.903946,296.082377,-2368.659014,-79214.274493
137.907100,-14063.912898,1628.453072,-78294.959896
137.910254,-15692.365970,1184.329507,-78907.836294
137.913408,6365.771101,296.082377,-78601.398095
137.916562,10807.006753,-1332.370696,-81206.122788
137.919716,1924.535449,-4293.194464,-80593.246390
137.922871,-8586.388927,-2368.659014,-78601.398095
137.926025,-19985.560434,-3701.029710,-79520.712692
137.929157,-16284.530724,-148.041188,-76915.987999
137.932289,1628.453072,592.164754,-79214.274493
137.935422,444.123565,296.082377,-78907.836294
137.938554,-1628.453072,-1480.411884,-77835.302597
137.941687,-2220.617826,-296.082377,-81052.903688
137.944819,-13175.665768,-4293.194464,-77375.645298
137.947952,8882.471304,-3404.947333,-77375.645298
137.951084,14508.036463,-1036.288319,-78907.836294
137.954217,0.000000,1480.411884,-78601.398095
137.957349,-4885.359217,-2960.823768,-79214.274493
137.960482,1184.329507,-1184.329507,-79520.712692
137.963614,17468.860231,-2220.617826,-80593.246390
137.966746,10955.047942,-1776.494261,-76609.549800
137.969879,-6513.812290,-4145.153275,-79214.274493
137.973011,-12731.542202,-1332.370696,-78754.617194
137.976144,-3849.070898,888.247130,-77682.083497
137.979276,2516.700203,444.123565,-79827.150892
137.982409,14656.077652,-2812.782580,-78754.617194
137.985541,6661.853478,-444.123565,-79827.150892
137.988674,11843.295072,-2516.700203,-80286.808190
137.991806,6217.729913,-3108.864956,-76609.549800
137.994938,-3849.070898,148.041188,-79214.274493
137.998071,-6217.729913,2220.617826,-79827.150892
138.001203,9030.512492,-1776.494261,-78754.617194
138.004336,14804.118840,-1776.494261,-78907.836294
138.007468,-444.123565,-2812.782580,-80286.808190
138.010601,-20133.601622,-3256.906145,-76915.987999
138.013733,-20281.642811,-2516.700203,-79827.150892
138.016866,-5477.523971,-3108.864956,-77988.521696
138.019998,7402.059420,1924.535449,-78448.178995
138.023130,4145.153275,444.123565,-80899.684589
138.026263,-5625.565159,-5625.565159,-76915.987999
138.029433,148.041188,-3108.864956,-77682.083497
138.032603,5329.482782,-2220.617826,-77835.302597
138.035773,-4145.153275,-3108.864956,-79061.055394
138.038943,-7105.977043,-1036.288319,-78907.836294
138.042113,-6809.894666,1924.535449,-76915.987999
138.045283,-8290.306550,-888.247130,-80746.465489
138.048453,-148.041188,-2220.617826,-78907.836294
138.051623,444.123565,-1184.329507,-79520.712692
138.054793,-5181.441594,-3256.906145,-77069.207099
138.057963,-12731.542202,-1036.288319,-78601.398095
138.061133,-16580.613101,-2960.823768,-80899.684589
138.064303,12435.459826,148.041188,-79520.712692
138.067473,25167.002028,-444.123565,-78907.836294
138.070643,9770.718434,-1628.453072,-77682.083497
138.073814,-3404.947333,-5181.441594,-78754.617194
138.076984,-9030.512492,0.000000,-78448.178995
138.080154,2368.659014,-2812.782580,-80746.465489
138.083324,10658.965565,-2812.782580,-79520.712692
138.086494,-888.247130,1184.329507,-79673.931792
138.089664,1924.535449,740.205942,-78294.959896
138.092834,2664.741391,-2516.700203,-78754.617194
138.096004,11695.253884,-296.082377,-81818.999186
138.099174,3997.112087,-4293.194464,-79980.369991
138.102344,-4293.194464,-740.205942,-80746.465489
138.105514,7550.100608,-1776.494261,-79214.274493
138.108684,12731.542202,444.123565,-76915.987999
138.111854,1924.535449,3108.864956,-78907.836294
138.115024,592.164754,-2960.823768,-77069.207099
138.118194,5625.565159,-3404.947333,-82125.437386
138.121364,6365.771101,-296.082377,-77835.302597
138.124534,-7254.018232,-2664.741391,-77222.426198
138.127704,-23242.466579,-4293.194464,-80746.465489
138.130905,-17024.736666,3997.112087,-76762.768900
138.134106,888.247130,-2368.659014,-79061.055394
138.137307,12435.459826,-2664.741391,-79980.369991
138.140508,4589.276840,-888.247130,-79214.274493
138.143709,-5773.606348,-4293.194464,-78141.740796
138.146910,-15248.242405,-1332.370696,-76915.987999
138.150111,-3108.864956,0.000000,-80133.589091
138.153312,-3108.864956,-740.205942,-77682.083497
138.156513,-5329.482782,-1036.288319,-81512.560987
138.159714,-4441.235652,-4737.318029,-79673.931792
138.162915,-10955.047942,-1924.535449,-79061.055394
138.166116,-3108.864956,-148.041188,-81512.560987
138.169317,-3849.070898,-1924.535449,-77528.864398
138.172518,-13323.706956,-2072.576638,-77835.302597
138.175719,-8882.471304,2220.617826,-78754.617194
138.178920,-2664.741391,-3256.906145,-81512.560987
138.182121,25315.043216,-2812.782580,-80133.589091
138.185323,23390.507767,-444.123565,-78601.398095
138.188524,-1036.288319,-3701.029710,-77222.426198
138.191725,-20133.601622,-6069.688724,-78294.959896
138.194926,-6365.771101,-3108.864956,-80286.808190
138.198127,9622.677246,-444.123565,-77682.083497
138.201328,18949.272115,1184.329507,-80746.465489
138.204529,3701.029710,-2516.700203,-77835.302597
138.207730,592.164754,-3108.864956,-80746.465489
138.210931,1924.535449,-1480.411884,-78294.959896
138.214132,444.123565,-3108.864956,-76762.768900
138.217333,-4293.194464,-1036.288319,-80746.465489
138.220534,2812.782580,444.123565,-77682.083497
138.223735,14359.995275,148.041188,-81206.122788
138.226936,14211.954086,-2664.741391,-78141.740796
138.230137,1776.494261,-2368.659014,-78754.617194
138.233363,-7105.977043,-2072.576638,-79673.931792
138.236589,3256.906145,-3849.070898,-77375.645298
138.239816,-3849.070898,-2072.576638,-79061.055394
138.243042,-11399.171507,1480.411884,-78448.178995
138.246268,-14508.036463,-2072.576638,-79827.150892
138.249495,-2368.659014,-1776.494261,-79367.493593
138.252721,9918.759623,-3997.112087,-78601.398095
138.255947,-592.164754,-2220.617826,-79214.274493
138.259174,-20281.642811,-1332.370696,-79827.150892
138.262400,-14359.995275,-4145.153275,-77528.864398
138.265626,-7550.100608,1184.329507,-80746.465489
138.268853,2220.617826,1480.411884,-81972.218286
138.272079,11399.171507,-4589.276840,-78141.740796
138.275305,-1776.494261,-2516.700203,-79061.055394
138.278532,-11547.212695,-3256.906145,-75996.673402
138.281758,-10658.965565,-1924.535449,-77222.426198
138.284984,-7254.018232,1184.329507,-82585.094684
138.288211,-1924.535449,444.123565,-78601.398095
138.291437,-8290.306550,2220.617826,-81512.560987
138.294663,-2960.823768,-1924.535449,-77375.645298
138.297890,17764.942608,-3552.988522,-77835.302597
138.301116,18949.272115,-1480.411884,-80593.246390
138.304342,1924.535449,-2220.617826,-74770.920605
138.307569,-16136.489536,-4589.276840,-79520.712692
138.310795,-11251.130318,444.123565,-80286.808190
138.314021,12879.583391,888.247130,-79214.274493
138.317248,23834.631332,-3701.029710,-78294.959896
138.320474,3849.070898,-5181.441594,-79061.055394
138.323700,-2664.741391,-888.247130,-81052.903688
138.326927,-7254.018232,-3108.864956,-79520.712692
138.330153,-2960.823768,-592.164754,-76456.330700
138.333379,1036.288319,-740.205942,-79214.274493
138.336627,11991.336260,-148.041188,-79673.931792
138.339874,13767.830521,-2368.659014,-77835.302597
138.343121,9770.718434,-1924.535449,-80286.808190
138.346369,2072.576638,-2072.576638,-79827.150892
138.349616,-3108.864956,-1628.453072,-78294.959896
138.352863,3256.906145,-3849.070898,-79061.055394
138.356111,-2812.782580,1184.329507,-77528.864398
138.359358,-13915.871710,1480.411884,-78294.959896
138.362605,-10362.883188,-888.247130,-79673.931792
138.365853,296.082377,-3552.988522,-80593.246390
138.369100,7254.018232,-1036.288319,-78907.836294
138.372347,-3256.906145,-2516.700203,-77375.645298
138.375595,-23982.672521,-148.041188,-79520.712692
138.378842,-13767.830521,148.041188,-77222.426198
138.382089,4737.318029,-148.041188,-78448.178995
138.385337,10510.924376,-2220.617826,-78754.617194
138.388584,-4589.276840,-3701.029710,-77682.083497
138.391831,-7994.224174,-1628.453072,-79367.493593
138.395079,-17172.777854,-2220.617826,-77835.302597
138.398326,-13471.748144,-1628.453072,-78601.398095
138.401574,-5921.647536,-444.123565,-81052.903688
138.404821,-1924.535449,740.205942,-78754.617194
138.408068,-7698.141797,-1924.535449,-78294.959896
138.411316,2812.782580,-2072.576638,-78907.836294
138.414563,24426.796086,-3552.988522,-80746.465489
138.417810,10807.006753,-2368.659014,-80746.465489
138.421058,-5773.606348,-3404.947333,-78294.959896
138.424305,-14211.954086,-1184.329507,-76915.987999
138.427552,-1184.329507,444.123565,-80746.465489
138.430800,18061.024985,1628.453072,-77682.083497
138.434047,18949.272115,-5181.441594,-77528.864398
138.437294,-3404.947333,-1628.453072,-80593.246390
138.440558,-11547.212695,-3552.988522,-78907.836294
138.443822,-9178.553681,592.164754,-80133.589091
138.447087,2220.617826,-444.123565,-77682.083497
138.450351,11251.130318,-296.082377,-78907.836294
138.453615,16284.530724,-4145.153275,-80133.589091
138.456879,14063.912898,-2812.782580,-77069.207099
138.460143,3256.906145,-1332.370696,-79214.274493
138.463407,-7105.977043,-3849.070898,-80133.589091
138.466671,-592.164754,-3256.906145,-79367.493593
138.469935,-444.123565,-1036.288319,-79827.150892
138.473200,-10362.883188,1036.288319,-77835.302597
138.476464,-14508.036463,-1184.329507,-79980.369991
138.479728,-7105.977043,-2664.741391,-80133.589091
138.482992,2220.617826,-4145.153275,-77988.521696
138.486256,5477.523971,-3404.947333,-78601.398095
138.489520,-14211.954086,-2072.576638,-78294.959896
138.492784,-22650.301825,-2072.576638,-79061.055394
138.496048,-3552.988522,-592.164754,-80746.465489
138.499312,14508.036463,2072.576638,-79520.712692
138.502577,7402.059420,-3552.988522,-81818.999186
138.505841,-11695.253884,-2220.617826,-79520.712692
138.509105,-13619.789333,-1332.370696,-75843.454302
138.512369,-18061.024985,-3404.947333,-78754.617194
138.515633,-6661.853478,444.123565,-80133.589091
138.518897,-1036.288319,1184.329507,-80899.684589
138.522161,-6513.812290,-1776.494261,-78601.398095
138.525425,-4441.235652,-2516.700203,-77528.864398
138.528690,20429.683999,-3849.070898,-81359.341888
138.531954,16284.530724,-296.082377,-78294.959896
138.535218,-296.082377,-1924.535449,-78448.178995
138.538482,-11399.171507,-1628.453072,-78294.959896
138.541746,-7254.018232,-592.164754,-79367.493593
138.545023,14508.036463,2072.576638,-78448.178995
138.548300,15544.324782,-3701.029710,-80440.027290
138.551576,1036.288319,-3701.029710,-78448.178995
138.554853,296.082377,-1480.411884,-79980.369991
138.558130,-3108.864956,-2072.576638,-80286.808190
138.561407,4885.359217,1480.411884,-75077.358804
138.564684,13027.624579,1628.453072,-79980.369991
138.567960,17468.860231,-1184.329507,-79520.712692
138.571237,13323.706956,-2960.823768,-79214.274493
138.574514,148.041188,-1776.494261,-80746.465489
138.577791,-3256.906145,-2960.823768,-75690.235202
138.581068,4145.153275,-3997.112087,-79673.931792
138.584344,-2220.617826,-2220.617826,-79061.055394
138.587621,-10214.842000,592.164754,-77069.207099
138.590898,-17024.736666,-2072.576638,-81665.780087
138.594175,-1776.494261,-2220.617826,-79673.931792
138.597452,8586.388927,-2960.823768,-79980.369991
138.600728,-444.123565,-2960.823768,-76762.768900
138.604005,-5773.606348,-3256.906145,-78448.178995
138.607282,-18949.272115,1184.329507,-79214.274493
138.610559,-3404.947333,-888.247130,-76456.330700
138.613836,6069.688724,-888.247130,-78294.959896
138.617112,6661.853478,-2072.576638,-79367.493593
138.620389,-2960.823768,-2072.576638,-79367.493593
138.623666,-12139.377449,-5329.482782,-80440.027290
138.626943,-14804.118840,-3256.906145,-76915.987999
138.630220,-5773.606348,-1480.411884,-78448.178995
138.633496,-740.205942,888.247130,-81512.560987
138.636773,-8438.347739,-1628.453072,-77988.521696
138.640050,5477.523971,-2812.782580,-77375.645298
138.643327,23834.631332,-2368.659014,-81206.122788
138.646604,13471.748144,-2664.741391,-78448.178995
138.649846,-4885.359217,-2516.700203,-77988.521696
138.653083,-14359.995275,-3404.947333,-77528.864398
138.656320,-3997.112087,-1332.370696,-80133.589091
138.659557,16728.654289,2220.617826,-80133.589091
138.662794,19689.478057,-740.205942,-79214.274493
138.666031,3108.864956,-4737.318029,-80286.808190
138.669268,-3849.070898,-1036.288319,-81512.560987
138.672505,1036.288319,-1776.494261,-76149.892501
138.675742,1628.453072,-1628.453072,-74924.139704
138.678979,8438.347739,-2664.741391,-76149.892501
138.682216,14508.036463,2368.659014,-78907.836294
138.685453,9030.512492,-2368.659014,-82125.437386
138.688690,-444.123565,-1924.535449,-80286.808190
138.691927,-296.082377,-1480.411884,-74617.701505
138.695164,3256.906145,-3256.906145,-79673.931792
138.698402,-9326.594869,-1184.329507,-75996.673402
138.701639,-13471.748144,1776.494261,-78907.836294
138.704876,-13471.748144,444.123565,-81818.999186
138.708113,4737.318029,0.000000,-78907.836294
138.711350,13175.665768,-2516.700203,-80133.589091
138.714587,-7402.059420,-4441.235652,-76456.330700
138.717824,-23242.466579,-2220.617826,-77988.521696
138.721061,-3701.029710,-2960.823768,-78448.178995
138.724298,296.082377,-740.205942,-79367.493593
138.727535,-8290.306550,2368.659014,-81206.122788
138.730772,5033.400406,-1628.453072,-77988.521696
138.734009,-5477.523971,-2960.823768,-81206.122788
138.737246,-14508.036463,-5625.565159,-79673.931792
138.740483,-6809.894666,-1776.494261,-75077.358804
138.743720,-4145.153275,148.041188,-79061.055394
138.746957,-9770.718434,740.205942,-81665.780087
138.750194,-6661.853478,1924.535449,-77682.083497
138.753448,20725.766376,-2368.659014,-79520.712692
138.756702,21465.972318,-2220.617826,-81665.780087
138.759956,6809.894666,-740.205942,-76762.768900
138.763210,-10658.965565,-4293.194464,-75230.577904
138.766464,-14359.995275,-1924.535449,-78754.617194
138.769717,6365.771101,2516.700203,-79980.369991
138.772971,12731.542202,148.041188,-81512.560987
138.776225,1332.370696,-2664.741391,-81512.560987
138.779479,4293.194464,-2220.617826,-80899.684589
138.782733,296.082377,-4293.194464,-78601.398095
138.785987,1924.535449,-4589.276840,-75537.016103
138.789240,7846.182985,-4145.153275,-77375.645298
138.792494,5329.482782,1184.329507,-77682.083497
138.795748,5477.523971,148.041188,-81818.999186
138.799002,5773.606348,-2960.823768,-79061.055394
138.802256,2960.823768,-592.164754,-78448.178995
138.805510,10362.883188,-4145.153275,-80440.027290
138.808764,-4737.318029,-2368.659014,-77069.207099
138.812017,-21614.013506,-444.123565,-78294.959896
138.815271,-18801.230927,148.041188,-81818.999186
138.818525,-3552.988522,2516.700203,-80593.246390
138.821779,15396.283594,-444.123565,-79367.493593
138.825033,6069.688724,-3108.864956,-79520.712692
138.828287,-11251.130318,-2220.617826,-77375.645298
138.831554,-12879.583391,-1628.453072,-78141.740796
138.834820,-6809.894666,-3256.906145,-78141.740796
138.838087,5773.606348,-296.082377,-79061.055394
138.841354,-5921.647536,-1184.329507,-80440.027290
138.844621,-6513.812290,-1776.494261,-78294.959896
138.847888,-7846.182985,-1628.453072,-76456.330700
138.851155,-1776.494261,-2664.741391,-78601.398095
138.854422,-6069.688724,-1628.453072,-79980.369991
138.857689,-15692.365970,-2812.782580,-79520.712692
138.860956,-12287.418637,-1776.494261,-78448.178995
138.864223,17468.860231,740.205942,-79214.274493
138.867490,26647.413912,-888.247130,-79980.369991
138.870757,10066.800811,-1480.411884,-80133.589091
138.874024,-7698.141797,-4145.153275,-78601.398095
138.877291,-8142.265362,-4737.318029,-77222.426198
138.880558,2664.741391,-2220.617826,-79214.274493
138.883825,12731.542202,1628.453072,-80286.808190
138.887091,-3404.947333,1332.370696,-77682.083497
138.890358,-2220.617826,-444.123565,-82738.313784
138.893625,10658.965565,-2812.782580,-79980.369991
138.896892,8882.471304,-4441.235652,-75230.577904
138.900159,7402.059420,-2960.823768,-79827.150892
138.903426,4737.318029,-1480.411884,-75996.673402
138.906693,-6513.812290,-148.041188,-80440.027290
138.909960,-2664.741391,1480.411884,-81359.341888
138.913227,15248.242405,-2220.617826,-77835.302597
138.916494,13323.706956,-2812.782580,-80746.465489
138.919761,-3108.864956,-3256.906145,-77835.302597
138.923028,-20281.642811,-2368.659014,-75230.577904
138.926295,-25167.002028,-2368.659014,-79980.369991
138.929562,-2368.659014,-1036.288319,-79520.712692
138.932829,10066.800811,444.123565,-80746.465489
138.936106,444.123565,-1776.494261,-77528.864398
138.939383,-12879.583391,-3997.112087,-79061.055394
138.942661,-4441.235652,-740.205942,-78294.959896
138.945938,7550.100608,-1036.288319,-75996.673402
138.949216,-14656.077652,-3997.112087,-80746.465489
138.952493,-18949.272115,1184.329507,-78907.836294
138.955770,-7698.141797,1628.453072,-77682.083497
138.959048,-1776.494261,-740.205942,-78601.398095
138.962325,3849.070898,-2960.823768,-77528.864398
138.965602,-1184.329507,-2072.576638,-79061.055394
138.968880,-20281.642811,-3256.906145,-77375.645298
138.972157,-2368.659014,-2960.823768,-77375.645298
138.975435,16728.654289,-888.247130,-80746.465489
138.978712,17764.942608,1184.329507,-79980.369991
138.981989,5181.441594,-2072.576638,-76762.768900
138.985267,-2368.659014,-3701.029710,-78294.959896
138.988544,5477.523971,-4885.359217,-81206.122788
138.991822,15396.283594,-1924.535449,-78448.178995
138.995099,8142.265362,-3849.070898,-80286.808190
138.998376,-8142.265362,-2220.617826,-77682.083497
139.001654,-4145.153275,2664.741391,-79367.493593
139.004931,12731.542202,-1480.411884,-81052.903688
139.008209,18801.230927,-3701.029710,-79673.931792
139.011486,17764.942608,-740.205942,-79520.712692
139.014763,3108.864956,-2664.741391,-77375.645298
139.018041,-13471.748144,-3404.947333,-79827.150892
139.021318,-1480.411884,2220.617826,-78448.178995
139.024595,11399.171507,-1036.288319,-80746.465489
139.027873,2220.617826,740.205942,-80899.684589
139.031150,-6809.894666,-1776.494261,-76762.768900
139.034428,-22206.178260,-1924.535449,-80440.027290
139.037705,-9474.636058,-148.041188,-78754.617194
139.040991,6069.688724,-1332.370696,-78601.398095
139.044277,-9918.759623,-1776.494261,-79214.274493
139.047563,-11991.336260,148.041188,-79214.274493
139.050849,-7846.182985,-2960.823768,-81052.903688
139.054134,2368.659014,-1924.535449,-78294.959896
139.057420,3701.029710,296.082377,-77069.207099
139.060706,-7846.182985,-1184.329507,-78754.617194
139.063992,-23094.425390,-3849.070898,-78601.398095
139.067278,-17172.777854,444.123565,-79214.274493
139.070564,-1628.453072,888.247130,-77069.207099
139.073850,2664.741391,-1184.329507,-79214.274493
139.077136,-10658.965565,-1924.535449,-80286.808190
139.080421,-740.205942,-2664.741391,-78141.740796
139.083707,18801.230927,-2516.700203,-80133.589091
139.086993,10807.006753,-2368.659014,-79367.493593
139.090279,-1184.329507,592.164754,-77375.645298
139.093565,-8734.430116,148.041188,-80133.589091
139.096851,-2368.659014,-1036.288319,-81818.999186
139.100137,26351.331535,2516.700203,-79827.150892
139.103423,12287.418637,-5921.647536,-79061.055394
139.106709,-5921.647536,-3256.906145,-77222.426198
139.109994,-6809.894666,-1924.535449,-79827.150892
139.113280,-2516.700203,-4145.153275,-80286.808190
139.116566,11547.212695,-444.123565,-80286.808190
139.119852,20429.683999,-888.247130,-78754.617194
139.123138,10214.842000,-2516.700203,-77988.521696
139.126424,-444.123565,-5181.441594,-78448.178995
139.129710,2368.659014,-1776.494261,-75996.673402
139.132996,5477.523971,-3701.029710,-80440.027290
139.136282,-3552.988522,888.247130,-79827.150892
139.139567,-12435.459826,444.123565,-79673.931792
139.142853,-16432.571912,740.205942,-80899.684589
139.146146,1332.370696,-1628.453072,-78601.398095
139.149438,11991.336260,-1036.288319,-79367.493593
139.152730,-5033.400406,-2960.823768,-76303.111601
139.156022,-24722.878463,-3552.988522,-79061.055394
139.159314,-16136.489536,-592.164754,-81972.218286
139.162607,12583.501014,2516.700203,-77069.207099
139.165899,7550.100608,-4885.359217,-76149.892501
139.169191,-7402.059420,-2072.576638,-77069.207099
139.172483,-10955.047942,-148.041188,-75843.454302
139.175775,-13619.789333,-2960.823768,-79827.150892
139.179068,-7105.977043,-1628.453072,-80899.684589
139.182360,-5477.523971,-1628.453072,-80746.465489
139.185652,-17764.942608,444.123565,-79827.150892
139.188944,5477.523971,-1184.329507,-77682.083497
139.192237,25759.166782,-2664.741391,-77835.302597
139.195529,15544.324782,-3404.947333,-78601.398095
139.198821,-3997.112087,-3404.947333,-78448.178995
139.202113,-13175.665768,-2516.700203,-78141.740796
139.205405,-4589.276840,-2072.576638,-78601.398095
139.208698,15100.201217,888.247130,-78601.398095
139.211990,740.205942,-1332.370696,-80440.027290
139.215282,3849.070898,-3108.864956,-78294.959896
139.218574,-296.082377,-2368.659014,-80746.465489
139.221866,2664.741391,-3108.864956,-76915.987999
139.225159,14804.118840,-2812.782580,-76609.549800
139.228451,7105.977043,-1332.370696,-78601.398095
139.231743,-888.247130,3552.988522,-78907.836294
139.235035,-3404.947333,-4885.359217,-80746.465489
139.238328,15840.407159,-592.164754,-79827.150892
139.241620,14359.995275,-2368.659014,-78907.836294
139.244912,-8438.347739,-4441.235652,-77222.426198
139.248204,-29608.237680,-1332.370696,-76609.549800
139.251501,-20429.683999,-3701.029710,-79520.712692
139.254798,0.000000,1776.494261,-80899.684589
139.258094,10362.883188,-148.041188,-79214.274493
139.261391,-1628.453072,-1184.329507,-77682.083497
139.264688,-17764.942608,-2368.659014,-79980.369991
139.267984,3404.947333,-1036.288319,-82738.313784
139.271281,-148.041188,-2960.823768,-76456.330700
139.274578,-10214.842000,-1332.370696,-77222.426198
139.277875,-9030.512492,3256.906145,-79367.493593
139.281171,-10214.842000,-1184.329507,-78907.836294
139.284468,888.247130,-2664.741391,-79980.369991
139.287765,4441.235652,-740.205942,-79980.369991
139.291061,-11399.171507,-4293.194464,-77682.083497
139.294358,-3701.029710,-1776.494261,-77682.083497
139.297655,10510.924376,-3552.988522,-79367.493593
139.300952,14359.995275,-1036.288319,-79214.274493
139.304248,9622.677246,1628.453072,-78448.178995
139.307545,-2812.782580,-1480.411884,-79827.150892
139.310842,1332.370696,-5477.523971,-80440.027290
139.314138,19393.395680,444.123565,-78601.398095
139.317435,6365.771101,-1924.535449,-77375.645298
139.320732,-8438.347739,-2664.741391,-77988.521696
139.324029,-11695.253884,148.041188,-76915.987999
139.327325,7846.182985,-1480.411884,-81972.218286
139.330622,18505.148550,-4441.235652,-79827.150892
139.333919,19541.436869,-1924.535449,-78601.398095
139.337216,3849.070898,740.205942,-79214.274493
139.340512,-12435.459826,-4145.153275,-76609.549800
139.343809,-2368.659014,-1332.370696,-80133.589091
139.347106,13027.624579,2516.700203,-80746.465489
139.350402,4737.318029,-3256.906145,-79827.150892
139.353699,-15248.242405,-1332.370696,-78754.617194
139.356999,-10807.006753,-1924.535449,-77682.083497
139.360298,-6069.688724,-2072.576638,-78141.740796
139.363598,5921.647536,-2664.741391,-78294.959896
139.366898,-7698.141797,-4589.276840,-76915.987999
139.370198,-16876.695478,1332.370696,-80133.589091
139.373497,-5329.482782,1332.370696,-81818.999186
139.376797,8586.388927,-3404.947333,-75996.673402
139.380097,4293.194464,-2812.782580,-75996.673402
139.383396,-13175.665768,-3552.988522,-78754.617194
139.386696,-22206.178260,-2516.700203,-80440.027290
139.389996,-11991.336260,-1480.411884,-78601.398095
139.393295,-4145.153275,1036.288319,-80593.246390
139.396595,-5181.441594,1036.288319,-79980.369991
139.399895,2664.741391,-3849.070898,-78141.740796
139.403194,13471.748144,-3552.988522,-79827.150892
139.406494,15988.448347,-888.247130,-78141.740796
139.409794,1776.494261,-2960.823768,-77375.645298
139.413094,-11695.253884,-740.205942,-78601.398095
139.416393,-3849.070898,740.205942,-79367.493593
139.419693,6661.853478,-2960.823768,-78754.617194
139.422993,14359.995275,1480.411884,-77835.302597
139.426292,9770.718434,-3997.112087,-76609.549800
139.429592,4885.359217,-1776.494261,-81206.122788
139.432892,-10658.965565,2664.741391,-78907.836294
139.436191,7402.059420,-2220.617826,-80133.589091
139.439491,15988.448347,-2368.659014,-80440.027290
139.442791,5477.523971,296.082377,-78141.740796
139.446090,-2812.782580,-3701.029710,-77682.083497
139.449390,14211.954086,-2516.700203,-74770.920605
139.452690,10362.883188,-1036.288319,-83197.971083
139.455989,-11251.130318,-4293.194464,-79061.055394
139.459289,-24130.713709,-3552.988522,-75537.016103
139.462544,-15692.365970,1924.535449,-80133.589091
139.465799,2664.741391,1628.453072,-79673.931792
139.469053,17764.942608,-1776.494261,-77682.083497
139.472308,5625.565159,-4737.318029,-78141.740796
139.475563,-21317.931130,-3849.070898,-78141.740796
139.478818,-5773.606348,-1332.370696,-77375.645298
139.482072,2664.741391,592.164754,-78601.398095
139.485327,-1628.453072,-2072.576638,-78294.959896
139.488582,-9326.594869,-592.164754,-78907.836294
139.491837,-10214.842000,296.082377,-78294.959896
139.495091,-148.041188,-5477.523971,-80286.808190
139.498346,1628.453072,-1924.535449,-78907.836294
139.501601,-13915.871710,-888.247130,-78601.398095
139.504856,-2516.700203,-4145.153275,-78754.617194
139.508110,11103.089130,1628.453072,-79367.493593
139.511365,16136.489536,740.205942,-80746.465489
139.514620,7994.224174,-4145.153275,-79673.931792
139.517875,-3256.906145,-2664.741391,-78141.740796
139.521129,8586.388927,-4885.359217,-81359.341888
139.524384,13619.789333,-296.082377,-77222.426198
139.527639,2812.782580,-1332.370696,-79367.493593
139.530894,3256.906145,-148.041188,-81972.218286
139.534148,2072.576638,-296.082377,-79980.369991
139.537403,10807.006753,0.000000,-80440.027290
139.540658,23982.672521,-3552.988522,-78754.617194
139.543913,13175.665768,-4145.153275,-77988.521696
139.547167,-7550.100608,-1332.370696,-77682.083497
139.550422,-10362.883188,-4885.359217,-77988.521696
139.553677,7550.100608,888.247130,-79061.055394
139.556932,5329.482782,740.205942,-82125.437386
139.560186,-3404.947333,-4293.194464,-77528.864398
139.563441,-15840.407159,-148.041188,-77682.083497
139.566713,-12435.459826,-3849.070898,-80440.027290
139.569977,2368.659014,-3404.947333,-78907.836294
139.573241,2960.823768,-3256.906145,-76915.987999
139.576506,-16728.654289,-1628.453072,-77375.645298
139.579770,-5181.441594,2516.700203,-81818.999186
139.583034,4293.194464,-1628.453072,-80746.465489
139.586298,2516.700203,-2812.782580,-77375.645298
139.589563,-4293.194464,-1628.453072,-79673.931792
139.592827,-20281.642811,-2072.576638,-74464.482406
139.596091,-17616.901420,-4589.276840,-79827.150892
139.599355,-1480.411884,3256.906145,-79980.369991
139.602619,-5921.647536,2960.823768,-79980.369991
139.605884,2664.741391,-5477.523971,-79980.369991
139.609148,17912.983796,-3552.988522,-77682.083497
139.612412,17172.777854,-1332.370696,-77682.083497
139.615676,-1184.329507,-3701.029710,-75996.673402
139.618941,-9178.553681,-2812.782580,-77988.521696
139.622205,-4441.235652,-1480.411884,-79520.712692
139.625469,19097.313304,-444.123565,-79214.274493
139.628733,15544.324782,1332.370696,-81818.999186
139.631998,1036.288319,-3701.029710,-77222.426198
139.635262,6365.771101,-1332.370696,-78601.398095
139.638526,-888.247130,-1184.329507,-79061.055394
139.641790,10362.883188,-2220.617826,-80286.808190
139.645054,13323.706956,-1924.535449,-80286.808190
139.648319,592.164754,3108.864956,-78448.178995
139.651583,-1184.329507,-4293.194464,-77682.083497
139.654847,12139.377449,-3256.906145,-80899.684589
139.658111,5329.482782,-740.205942,-81359.341888
139.661376,-13471.748144,-3849.070898,-79214.274493
139.664640,-24722.878463,-3997.112087,-77988.521696
139.667904,-15544.324782,1776.494261,-77069.207099
139.671176,7105.977043,1036.288319,-80286.808190
139.674447,5181.441594,-2072.576638,-77835.302597
139.677719,-9326.594869,-4885.359217,-78448.178995
139.680990,-13175.665768,-1480.411884,-79520.712692
139.684262,4885.359217,444.123565,-80133.589091
139.687534,-4145.153275,-1332.370696,-81512.560987
139.690805,-15692.365970,1332.370696,-74311.263306
139.694077,-10658.965565,1924.535449,-77835.302597
139.697349,-5773.606348,-3552.988522,-81972.218286
139.700620,3256.906145,-1480.411884,-77835.302597
139.703892,-5033.400406,-740.205942,-81512.560987
139.707163,-5329.482782,-5033.400406,-78294.959896
139.710435,4737.318029,-2368.659014,-77222.426198
139.713707,9474.636058,-1628.453072,-79827.150892
139.716978,5625.565159,1036.288319,-76762.768900
139.720250,2368.659014,-592.164754,-78754.617194
139.723521,740.205942,-3256.906145,-79827.150892
139.726793,21021.848753,-1332.370696,-78294.959896
139.730065,7698.141797,-1628.453072,-78907.836294
139.733336,-5033.400406,-2812.782580,-79827.150892
139.736608,-5033.400406,-1332.370696,-78448.178995
139.739880,4145.153275,-740.205942,-80286.808190
139.743151,19689.478057,444.123565,-77682.083497
139.746423,20577.725188,-4293.194464,-80133.589091
139.775918,1776.494261,-2072.576638,-75843.454302
139.779195,-17912.983796,-5033.400406,-78754.617194
139.782472,-10214.842000,2812.782580,-80899.684589
139.785749,-5625.565159,2368.659014,-80899.684589
139.789027,2812.782580,-1628.453072,-79367.493593
139.792304,-2812.782580,-2516.700203,-77988.521696
139.795581,-14952.160028,-3108.864956,-75690.235202
139.798858,-16876.695478,-3552.988522,-79827.150892
139.802135,-7254.018232,-3701.029710,-78448.178995
139.805413,-8586.388927,1332.370696,-79061.055394
139.808690,5921.647536,-1776.494261,-80899.684589
139.811967,20281.642811,-3552.988522,-77835.302597
139.815244,18061.024985,-1332.370696,-78294.959896
139.818522,592.164754,-5329.482782,-79520.712692
139.821799,-8734.430116,-740.205942,-78907.836294
139.825076,-1776.494261,-2220.617826,-79214.274493
139.828353,10066.800811,-2220.617826,-78448.178995
139.831630,5033.400406,4589.276840,-79367.493593
139.834908,5181.441594,-4589.276840,-80286.808190
139.838185,296.082377,-5921.647536,-81052.903688
139.841462,888.247130,-1480.411884,-80133.589091
139.844739,16284.530724,-1776.494261,-77069.207099
139.848016,5329.482782,-2368.659014,-79980.369991
139.851294,-6513.812290,2368.659014,-77988.521696
139.854575,3552.988522,-3404.947333,-78754.617194
139.857856,14952.160028,-1036.288319,-79061.055394
139.861137,-148.041188,-2368.659014,-81052.903688
139.864419,-18505.148550,-3701.029710,-78907.836294
139.867700,-20281.642811,-2960.823768,-76303.111601
139.870981,-7105.977043,-1628.453072,-81052.903688
139.874263,740.205942,0.000000,-80286.808190
139.877544,6661.853478,1036.288319,-78754.617194
139.880825,-9178.553681,-4145.153275,-78601.398095
139.884106,10510.924376,-3256.906145,-77682.083497
139.887388,-1332.370696,-592.164754,-80133.589091
139.890669,-7846.182985,-1332.370696,-78448.178995
139.893950,-20577.725188,-3256.906145,-79980.369991
139.897231,-15840.407159,1184.329507,-80133.589091
139.900513,-4293.194464,1776.494261,-77835.302597
139.903794,5477.523971,-1776.494261,-79061.055394
139.907075,-3701.029710,-1332.370696,-79827.150892
139.910357,8290.306550,-5181.441594,-78754.617194
139.913638,14804.118840,-2072.576638,-78141.740796
139.916919,-2072.576638,-1776.494261,-78907.836294
139.920200,-4293.194464,0.000000,-78754.617194
139.923482,-1036.288319,-1036.288319,-79520.712692
139.926763,17912.983796,-4737.318029,-78754.617194
139.930044,12139.377449,-3404.947333,-79214.274493
139.933325,-2072.576638,-3256.906145,-81512.560987
139.936607,148.041188,-2516.700203,-79673.931792
139.939888,-3552.988522,-2368.659014,-82738.313784
139.943169,9474.636058,-888.247130,-76762.768900
139.946451,20429.683999,-592.164754,-78294.959896
139.949732,7105.977043,-2220.617826,-80286.808190
139.953013,-6513.812290,-2220.617826,-81665.780087
139.956294,12435.459826,-1480.411884,-79520.712692
139.959578,-5773.606348,-888.247130,-81206.122788
139.962863,-17320.819043,-2072.576638,-78754.617194
139.966147,-17024.736666,-148.041188,-77375.645298
139.969431,-7550.100608,1628.453072,-78141.740796
139.972715,15100.201217,-148.041188,-78601.398095
139.975999,15840.407159,-3552.988522,-80746.465489
139.979283,-12435.459826,-3108.864956,-76303.111601
139.982567,-9770.718434,-2960.823768,-78294.959896
139.985851,-12139.377449,-2368.659014,-79827.150892
139.989135,1332.370696,3552.988522,-77375.645298
139.992419,-8438.347739,-4145.153275,-81052.903688
139.995703,-14952.160028,-1184.329507,-80593.246390
139.998988,-2516.700203,-2664.741391,-77528.864398
140.002272,-1332.370696,-2220.617826,-79367.493593
140.005556,-12731.542202,-2516.700203,-79673.931792
140.008840,6069.688724,-3256.906145,-77682.083497
140.012124,13915.871710,1332.370696,-79061.055394
140.015408,5033.400406,2220.617826,-79520.712692
140.018692,5477.523971,-5033.400406,-79367.493593
140.021976,148.041188,-1332.370696,-80440.027290
140.025260,-296.082377,-1776.494261,-80286.808190
140.028544,11547.212695,-1628.453072,-78294.959896
140.031828,-7550.100608,444.123565,-78448.178995
140.035113,-2368.659014,-444.123565,-78448.178995
140.038397,9622.677246,2812.782580,-77375.645298
140.041681,23242.466579,-2664.741391,-75690.235202
140.044965,19097.313304,-1480.411884,-80593.246390
140.048249,-1036.288319,-592.164754,-79673.931792
140.051533,-12139.377449,-5033.400406,-77375.645298
140.054817,2516.700203,-2812.782580,-79673.931792
140.058101,-2664.741391,1628.453072,-78294.959896
140.061385,-10510.924376,0.000000,-78907.836294
140.064671,-12731.542202,-2516.700203,-77682.083497
140.067956,-1776.494261,-3404.947333,-78141.740796
140.071242,3552.988522,-1628.453072,-80746.465489
140.074527,-1480.411884,-148.041188,-78754.617194
140.077812,-18949.272115,-148.041188,-76915.987999
140.081098,-12287.418637,740.205942,-79520.712692
140.084383,8586.388927,-1924.535449,-80286.808190
140.087668,-148.041188,-3849.070898,-79061.055394
140.090954,-8142.265362,-2812.782580,-80746.465489
140.094239,-12731.542202,-2368.659014,-78907.836294
140.097525,-11547.212695,-1924.535449,-78907.836294
140.100810,-8586.388927,-1776.494261,-78754.617194
140.104095,-1924.535449,740.205942,-80286.808190
140.107381,18653.189738,-2664.741391,-80133.589091
140.110666,22354.219448,-1036.288319,-77528.864398
140.113952,6513.812290,-1332.370696,-80899.684589
140.117237,-4293.194464,-2812.782580,-77988.521696
140.120522,-6661.853478,-2812.782580,-77988.521696
140.123808,2516.700203,-3404.947333,-79367.493593
140.127093,7846.182985,-1036.288319,-77069.207099
140.130379,1776.494261,-296.082377,-78294.959896
140.133664,4737.318029,-3108.864956,-80286.808190
140.136949,7254.018232,-4441.235652,-77988.521696
140.140235,19245.354492,-2072.576638,-78448.178995
140.143520,5921.647536,-1628.453072,-79520.712692
140.146806,-6513.812290,-1184.329507,-78294.959896
140.150091,-4145.153275,-888.247130,-77222.426198
140.153376,10807.006753,2664.741391,-79061.055394
140.156662,296.082377,-2812.782580,-80746.465489
140.159947,-15100.201217,-3404.947333,-80593.246390
140.163233,-17172.777854,0.000000,-74311.263306
140.166518,-7698.141797,-1924.535449,-79673.931792
140.169804,1924.535449,-1924.535449,-80286.808190
140.173091,-1480.411884,592.164754,-78141.740796
140.176377,-11547.212695,-2220.617826,-80899.684589
140.179663,5329.482782,-1628.453072,-78448.178995
140.182950,2960.823768,-1924.535449,-80133.589091
140.186236,-12435.459826,-296.082377,-78448.178995
140.189523,-18653.189738,-3997.112087,-78448.178995
140.192809,-16876.695478,-1628.453072,-79520.712692
140.196095,-9178.553681,1036.288319,-78754.617194
140.199382,-592.164754,888.247130,-78907.836294
140.202668,13027.624579,-2516.700203,-80133.589091
140.205954,13619.789333,-2072.576638,-79367.493593
140.209241,10066.800811,-2368.659014,-78907.836294
140.212527,-5625.565159,-2812.782580,-79214.274493
140.215813,-8882.471304,592.164754,-78141.740796
140.219100,10510.924376,-1776.494261,-80440.027290
140.222386,10955.047942,444.123565,-80746.465489
140.225673,18209.066173,-2072.576638,-78294.959896
140.228959,-1184.329507,-1776.494261,-78294.959896
140.232245,-6365.771101,-4737.318029,-78294.959896
140.235532,14211.954086,592.164754,-73085.510509
140.238818,12583.501014,-2516.700203,-80899.684589
140.242104,2516.700203,2072.576638,-82891.532884
140.245391,-148.041188,-1184.329507,-76762.768900
140.248677,10807.006753,-6217.729913,-79520.712692
140.251964,2812.782580,-2220.617826,-78754.617194
140.255250,-9918.759623,-2072.576638,-77069.207099
140.258536,-26203.290347,-3997.112087,-79980.369991
140.261823,-17320.819043,888.247130,-77988.521696
140.265109,5181.441594,1480.411884,-79520.712692
140.268395,9030.512492,-2220.617826,-79827.150892
140.271682,296.082377,-3701.029710,-78448.178995
140.274968,-10807.006753,-3849.070898,-81206.122788
140.278255,-1332.370696,-2220.617826,-78294.959896
140.281542,-5773.606348,1036.288319,-77375.645298
140.284828,-15544.324782,-3997.112087,-81206.122788
140.288115,-15396.283594,296.082377,-80133.589091
140.291402,-6069.688724,1628.453072,-79367.493593
140.294688,2220.617826,-2220.617826,-78754.617194
140.297975,1480.411884,-2664.741391,-80133.589091
140.301261,13027.624579,-3108.864956,-78448.178995
140.304548,11399.171507,-2516.700203,-76456.330700
140.307835,-4441.235652,-592.164754,-79980.369991
140.311121,-5625.565159,740.205942,-80133.589091
140.314408,6069.688724,-3108.864956,-79520.712692
140.317694,20577.725188,-5625.565159,-78754.617194
140.320981,8438.347739,-3849.070898,-76149.892501
140.324268,-4737.318029,-1332.370696,-76303.111601
140.327554,-9178.553681,-3552.988522,-81052.903688
140.330841,1036.288319,740.205942,-79673.931792
140.334128,15544.324782,592.164754,-78294.959896
140.337414,12435.459826,592.164754,-82431.875585
140.340701,-740.205942,-1924.535449,-77222.426198
140.343987,4737.318029,-4737.318029,-78294.959896
140.347274,-444.123565,-1776.494261,-78907.836294
140.350561,-14952.160028,-1628.453072,-79367.493593
140.353847,-25018.960840,-2220.617826,-80899.684589
140.357134,-12139.377449,1776.494261,-77682.083497
140.360420,8586.388927,-1776.494261,-77682.083497
140.363707,7846.182985,-2220.617826,-80133.589091
140.366994,-6069.688724,-740.205942,-78294.959896
140.370280,-5477.523971,-2516.700203,-76456.330700
140.373567,-3849.070898,-2516.700203,-81206.122788
140.376854,-8290.306550,6809.894666,-77528.864398
140.380140,-11843.295072,740.205942,-79673.931792
140.383426,-10955.047942,-3701.029710,-81512.560987
140.386712,-8438.347739,-2812.782580,-77682.083497
140.389999,-1184.329507,-2812.782580,-78601.398095
140.393285,3256.906145,-2220.617826,-77222.426198
140.396571,10214.842000,-4737.318029,-80133.589091
140.399857,9918.759623,1036.288319,-79214.274493
140.403144,4589.276840,1924.535449,-79061.055394
140.406430,-740.205942,-888.247130,-80746.465489
140.409716,9918.759623,-1924.535449,-79673.931792
140.413002,14508.036463,-3849.070898,-78601.398095
140.416289,7402.059420,-1776.494261,-77069.207099
140.419575,-6513.812290,-2220.617826,-78907.836294
140.422861,-2960.823768,-2220.617826,-80593.246390
140.426148,12435.459826,3701.029710,-79673.931792
140.429434,28571.949361,-3256.906145,-78141.740796
140.432720,12287.418637,-2072.576638,-81052.903688
140.436006,-3997.112087,-2812.782580,-81052.903688
140.439293,3552.988522,-4737.318029,-76762.768900
140.442579,-1924.535449,-1332.370696,-78294.959896
140.445865,-9622.677246,1480.411884,-78294.959896
140.449151,-19985.560434,-740.205942,-79061.055394
140.452438,-7550.100608,1036.288319,-78448.178995
140.455724,10362.883188,-3404.947333,-79061.055394
140.459010,-3108.864956,-1924.535449,-79673.931792
140.462296,-9622.677246,-2072.576638,-77222.426198
140.465583,-12583.501014,-3108.864956,-79061.055394
140.468869,-8290.306550,1332.370696,-79061.055394
140.472155,-3404.947333,3256.906145,-78601.398095
140.475442,-11695.253884,592.164754,-80746.465489
140.478728,-6957.935855,-2812.782580,-77988.521696
140.482014,-9474.636058,-2664.741391,-78294.959896
140.485299,-10658.965565,-740.205942,-77069.207099
140.488585,3404.947333,-1628.453072,-77375.645298
140.491870,11843.295072,-1924.535449,-81665.780087
140.495156,15396.283594,1628.453072,-80133.589091
140.498441,4589.276840,-1184.329507,-76762.768900
140.501727,-888.247130,-4145.153275,-79980.369991
140.505012,3256.906145,-3849.070898,-79980.369991
140.508298,8882.471304,-3701.029710,-77682.083497
140.511583,6365.771101,-888.247130,-78141.740796
140.514868,-5773.606348,-888.247130,-78294.959896
140.518154,-2664.741391,740.205942,-80899.684589
140.521439,19985.560434,888.247130,-75996.673402
140.524725,23686.590144,-4885.359217,-79673.931792
140.528010,2664.741391,-1332.370696,-81359.341888
140.531296,-3404.947333,-1036.288319,-77988.521696
140.534581,1480.411884,-3849.070898,-79980.369991
140.537866,-6365.771101,148.041188,-77222.426198
140.541152,-11103.089130,2220.617826,-79827.150892
140.544437,-12139.377449,740.205942,-79673.931792
140.547723,-888.247130,-4441.235652,-76762.768900
140.551008,10214.842000,-1184.329507,-80286.808190
140.554294,1776.494261,-444.123565,-77069.207099
140.557579,-9918.759623,-4737.318029,-79061.055394
140.560864,-3997.112087,-1036.288319,-78601.398095
140.564150,0.000000,2368.659014,-78601.398095
140.567435,-888.247130,-1628.453072,-78141.740796
140.570721,-6365.771101,-592.164754,-78448.178995
140.574006,-8882.471304,-1776.494261,-79980.369991
140.577292,-9622.677246,-3849.070898,-76149.892501
140.580577,-14804.118840,-4737.318029,-80440.027290
140.583863,13323.706956,1628.453072,-78141.740796
140.587148,22206.178260,148.041188,-78294.959896
140.590412,7550.100608,-1924.535449,-78907.836294
140.593697,1924.535449,-4145.153275,-77069.207099
140.596981,-4737.318029,-2516.700203,-79673.931792
140.600265,11695.253884,-5773.606348,-78294.959896
140.603549,4737.318029,-888.247130,-78141.740796
140.606834,-5477.523971,-888.247130,-79673.931792
140.610118,-592.164754,-888.247130,-81206.122788
140.613402,16580.613101,296.082377,-78141.740796
140.616686,27535.661042,-3849.070898,-76915.987999
140.619971,13323.706956,-4589.276840,-78601.398095
140.623255,-8734.430116,148.041188,-77988.521696
140.626539,-3552.988522,-3108.864956,-79520.712692
140.629823,-3849.070898,-1036.288319,-80593.246390
140.633107,-8142.265362,2072.576638,-80133.589091
140.636392,-13175.665768,-2664.741391,-79520.712692
140.639676,-8142.265362,-1776.494261,-77835.302597
140.642960,10510.924376,-3108.864956,-77835.302597
140.646244,6513.812290,-3404.947333,-77222.426198
140.649529,-17468.860231,-2368.659014,-79367.493593
140.652813,-11103.089130,-1480.411884,-80899.684589
140.656097,-4145.153275,1184.329507,-78294.959896
140.659381,-2072.576638,0.000000,-80133.589091
140.662665,-10214.842000,-3108.864956,-77222.426198
140.665950,-15396.283594,-1628.453072,-77988.521696
140.695496,10066.800811,-6513.812290,-80899.684589
140.698779,-6069.688724,1480.411884,-76609.549800
140.702062,-5921.647536,3404.947333,-79827.150892
140.705344,15396.283594,-1036.288319,-82585.094684
140.708627,21169.889941,-3256.906145,-79061.055394
140.711910,16284.530724,-3108.864956,-77835.302597
140.715193,-2960.823768,-1036.288319,-78294.959896
140.718476,-8290.306550,-3404.947333,-78907.836294
140.721759,0.000000,-1480.411884,-77988.521696
140.725042,-4145.153275,888.247130,-80133.589091
140.728325,-19245.354492,-2220.617826,-81359.341888
140.731608,-4293.194464,-592.164754,-77835.302597
140.734890,1184.329507,-1776.494261,-79980.369991
140.738173,-5477.523971,-2960.823768,-77528.864398
140.741456,-6809.894666,-2516.700203,-79367.493593
140.744739,-15840.407159,-2220.617826,-78754.617194
140.748022,3701.029710,-1036.288319,-79980.369991
140.751305,-1776.494261,-1776.494261,-78601.398095
140.754588,-6661.853478,-2072.576638,-77835.302597
140.757871,-11547.212695,-148.041188,-80133.589091
140.761154,-14656.077652,-5625.565159,-79061.055394
140.764437,-11251.130318,-1036.288319,-77528.864398
140.767719,5921.647536,-888.247130,-78141.740796
140.771002,23390.507767,-1776.494261,-81665.780087
140.774283,16432.571912,1184.329507,-78448.178995
140.777564,2072.576638,-3849.070898,-77528.864398
140.780846,-7105.977043,-1628.453072,-79214.274493
140.784127,-2960.823768,-1480.411884,-79520.712692
140.787408,7402.059420,-3256.906145,-79367.493593
140.790689,-2960.823768,-1036.288319,-78754.617194
140.793970,-592.164754,2220.617826,-80440.027290
140.797251,12731.542202,-2516.700203,-80286.808190
140.800532,25611.125593,-1924.535449,-77835.302597
140.803813,17172.777854,-4737.318029,-78448.178995
140.807094,-3701.029710,-1036.288319,-77682.083497
140.810375,-7698.141797,-1036.288319,-80286.808190
140.813656,-2072.576638,-1924.535449,-79520.712692
140.816937,-6365.771101,2516.700203,-78448.178995
140.820218,-14656.077652,-3108.864956,-79980.369991
140.823499,-4145.153275,-1332.370696,-78294.959896
140.826780,5181.441594,-2664.741391,-78294.959896
140.830062,-9622.677246,-3701.029710,-77682.083497
140.833343,-5181.441594,-3256.906145,-79367.493593
140.836624,-14211.954086,-1776.494261,-78601.398095
140.839905,-5033.400406,1480.411884,-78754.617194
140.843186,-1184.329507,2368.659014,-75843.454302
140.846467,-4885.359217,-4145.153275,-80286.808190
140.849748,-16284.530724,-1036.288319,-80899.684589
140.853029,-17468.860231,-4589.276840,-77528.864398
140.856310,-14359.995275,-3256.906145,-79061.055394
140.859591,9918.759623,-1628.453072,-77835.302597
140.862872,21762.054695,-296.082377,-82125.437386
140.866153,16284.530724,-1776.494261,-78907.836294
140.869434,-296.082377,-3256.906145,-78907.836294
140.872715,0.000000,-2960.823768,-81206.122788
140.875996,10955.047942,-1776.494261,-77375.645298
140.879232,6513.812290,-5033.400406,-79673.931792
140.882468,-5181.441594,0.000000,-78754.617194
140.885704,5033.400406,0.000000,-77835.302597
140.888940,16136.489536,-1480.411884,-85036.600278
140.892176,22502.260637,-2072.576638,-78601.398095
140.895412,15692.365970,-2960.823768,-76609.549800
140.898648,-4293.194464,-2812.782580,-78754.617194
140.901884,-5625.565159,-5477.523971,-80440.027290
140.905120,-6513.812290,-888.247130,-78601.398095
140.908356,-5625.565159,1924.535449,-79673.931792
140.911592,-11843.295072,-2072.576638,-80899.684589
140.914828,-3404.947333,-1776.494261,-78141.740796
140.918064,1184.329507,-1924.535449,-79827.150892
140.921300,-5181.441594,-1036.288319,-79367.493593
140.924536,-10658.965565,-888.247130,-78294.959896
140.927772,-10955.047942,-2516.700203,-81359.341888
140.931008,2516.700203,5625.565159,-76915.987999
140.934244,3404.947333,-2664.741391,-75537.016103
140.937480,-13619.789333,-3404.947333,-82125.437386
140.940716,-12287.418637,-1628.453072,-78601.398095
140.943952,-8734.430116,-1924.535449,-77069.207099
140.947188,-9770.718434,-4441.235652,-79520.712692
140.950424,18505.148550,296.082377,-77069.207099
140.953659,16284.530724,2368.659014,-80746.465489
140.956895,2072.576638,-2368.659014,-77528.864398
140.960131,296.082377,-4293.194464,-77528.864398
140.963367,-3701.029710,-2220.617826,-79827.150892
140.966603,16432.571912,-1036.288319,-77835.302597
140.969839,-296.082377,-2072.576638,-77682.083497
140.973075,-8290.306550,740.205942,-78754.617194
140.976311,6217.729913,2220.617826,-82278.656485
140.979547,18061.024985,-1776.494261,-79061.055394
140.982746,25611.125593,-4737.318029,-77375.645298
140.985945,6809.894666,-1776.494261,-77528.864398
140.989144,-9326.594869,-592.164754,-78754.617194
140.992344,-3256.906145,-3404.947333,-80899.684589
140.995543,-12731.542202,-2516.700203,-80593.246390
140.998742,-14952.160028,1776.494261,-77988.521696
141.001941,-6661.853478,-740.205942,-77835.302597
141.005140,148.041188,-3849.070898,-79673.931792
141.008339,3701.029710,-3997.112087,-79673.931792
141.011538,-6217.729913,-148.041188,-75996.673402
141.014737,-8438.347739,-3997.112087,-79673.931792
141.017936,-1332.370696,444.123565,-79214.274493
141.021135,-11103.089130,1776.494261,-78141.740796
141.024335,-6513.812290,-296.082377,-77835.302597
141.027534,-10362.883188,-2368.659014,-79214.274493
141.030733,-15692.365970,-2516.700203,-80746.465489
141.033932,-12435.459826,-1628.453072,-77222.426198
141.037131,11991.336260,-2516.700203,-78754.617194
141.040330,16284.530724,-592.164754,-81206.122788
141.043529,10066.800811,2220.617826,-77988.521696
141.046728,2664.741391,-3256.906145,-79061.055394
141.049927,2220.617826,-2516.700203,-79061.055394
141.053126,5921.647536,740.205942,-81512.560987
141.056326,16580.613101,-2220.617826,-77528.864398
141.059525,-5033.400406,-3256.906145,-76303.111601
141.062724,-8734.430116,0.000000,-79673.931792
141.065923,9030.512492,1036.288319,-79367.493593
141.069122,26351.331535,-1776.494261,-79520.712692
141.072321,16284.530724,-3701.029710,-79980.369991
141.075520,-2072.576638,-1332.370696,-78294.959896
141.078719,-592.164754,-3849.070898,-79673.931792
141.081918,-13027.624579,-2516.700203,-79367.493593
141.085088,-15544.324782,1628.453072,-75537.016103
141.088257,-9770.718434,-2072.576638,-81512.560987
141.091426,-7846.182985,148.041188,-79980.369991
141.094596,12139.377449,0.000000,-76609.549800
141.097765,-148.041188,-1036.288319,-79827.150892
141.100934,-10955.047942,-1924.535449,-78294.959896
141.104103,-3997.112087,-3404.947333,-78601.398095
141.107273,-9030.512492,-2220.617826,-77682.083497
141.110442,-7698.141797,1776.494261,-79367.493593
141.113611,-10214.842000,-2664.741391,-80286.808190
141.116781,-5477.523971,-2960.823768,-79827.150892
141.119950,-6069.688724,-2516.700203,-80593.246390
141.123119,6513.812290,-3552.988522,-76149.892501
141.126289,16876.695478,-1924.535449,-78907.836294
141.129458,12435.459826,1184.329507,-81206.122788
141.132627,-5625.565159,444.123565,-76609.549800
141.135797,-1924.535449,-148.041188,-79980.369991
141.138966,14359.995275,-3256.906145,-79980.369991
141.142135,11399.171507,-1332.370696,-79520.712692
141.145304,-1776.494261,-1628.453072,-75996.673402
141.148474,-8290.306550,-3108.864956,-76149.892501
141.151643,592.164754,-1184.329507,-83197.971083
141.154812,17468.860231,1776.494261,-80593.246390
141.157982,21169.889941,-3701.029710,-75996.673402
141.161151,8142.265362,-2812.782580,-79214.274493
141.164320,3256.906145,-2812.782580,-79061.055394
141.167490,-9622.677246,-1924.535449,-78754.617194
141.170659,-16284.530724,-1776.494261,-79673.931792
141.173828,-17764.942608,-3404.947333,-81359.341888
141.176998,-6661.853478,3108.864956,-80746.465489
141.180167,5773.606348,-1776.494261,-77069.207099
141.183336,3997.112087,-4885.359217,-79214.274493
141.186482,-10658.965565,-4441.235652,-78601.398095
141.189627,-1480.411884,148.041188,-78141.740796
141.192773,-3849.070898,-5921.647536,-80286.808190
141.195918,-16136.489536,148.041188,-79061.055394
141.199064,-21021.848753,3552.988522,-77528.864398
141.202209,-5921.647536,-1332.370696,-78907.836294
141.205355,-6069.688724,-5033.400406,-80133.589091
141.208501,5181.441594,-2072.576638,-76915.987999
141.211646,22354.219448,-1776.494261,-80440.027290
141.214792,7698.141797,-3552.988522,-79980.369991
141.217937,-9178.553681,148.041188,-77222.426198
141.221083,-5329.482782,-444.123565,-79214.274493
141.224228,14656.077652,-1924.535449,-81512.560987
141.227374,11251.130318,-2220.617826,-81972.218286
141.230520,-444.123565,-2220.617826,-78294.959896
141.233665,5181.441594,-2220.617826,-73698.386908
141.236811,2220.617826,-2516.700203,-81972.218286
141.239956,9326.594869,-1184.329507,-79061.055394
141.243102,14063.912898,888.247130,-76456.330700
141.246247,6513.812290,-3108.864956,-82431.875585
141.249393,3997.112087,-4145.153275,-79827.150892
141.252538,-5329.482782,-2960.823768,-79520.712692
141.255684,-14211.954086,-2072.576638,-75690.235202
141.258830,-18653.189738,-3701.029710,-79214.274493
141.261975,-10362.883188,-740.205942,-80746.465489
141.265121,1924.535449,148.041188,-78141.740796
141.268266,-1924.535449,1924.535449,-78754.617194
141.271412,1184.329507,-4145.153275,-78294.959896
141.274557,-3552.988522,-1776.494261,-80746.465489
141.277703,-7846.182985,-1924.535449,-79061.055394
141.280848,-18949.272115,-3108.864956,-80440.027290
141.283994,-23094.425390,0.000000,-79367.493593
141.287121,-8586.388927,-592.164754,-77835.302597
141.290248,-888.247130,-2516.700203,-78141.740796
141.293375,24870.919651,-1628.453072,-76609.549800
141.296502,23686.590144,-2664.741391,-81206.122788
141.299629,5773.606348,-1036.288319,-77988.521696
141.302756,-10658.965565,-2664.741391,-77835.302597
141.305883,-13175.665768,-3256.906145,-79367.493593
141.309010,6809.894666,296.082377,-81818.999186
141.312137,13767.830521,-1480.411884,-79980.369991
141.315264,2368.659014,-1628.453072,-75996.673402
141.318391,8734.430116,-4441.235652,-79367.493593
141.321518,10658.965565,-2220.617826,-78601.398095
141.324645,15396.283594,-888.247130,-79061.055394
141.327772,5773.606348,-2664.741391,-80899.684589
141.330899,296.082377,1332.370696,-77682.083497
141.334026,444.123565,-888.247130,-79827.150892
141.337153,-3108.864956,-3701.029710,-77682.083497
141.340280,-14063.912898,-2220.617826,-77682.083497
141.343407,-12287.418637,-1480.411884,-78754.617194
141.346534,-5773.606348,-2664.741391,-78294.959896
141.349661,-5477.523971,-2368.659014,-79214.274493
141.352788,-8882.471304,1184.329507,-79214.274493
141.355914,-3552.988522,-296.082377,-79980.369991
141.359041,5477.523971,-2664.741391,-79520.712692
141.362168,-1776.494261,-3108.864956,-79980.369991
141.365295,-21614.013506,-2960.823768,-77528.864398
141.368422,-21614.013506,-1036.288319,-79673.931792
141.371549,-9918.759623,592.164754,-77682.083497
141.374676,-2516.700203,-148.041188,-77682.083497
141.377803,25907.207970,-444.123565,-79980.369991
141.380930,25611.125593,-2368.659014,-81052.903688
141.384057,-2072.576638,-3701.029710,-77988.521696
141.387212,-7105.977043,-5329.482782,-77375.645298
141.390366,1480.411884,-3404.947333,-79367.493593
141.393520,12435.459826,592.164754,-80440.027290
141.396675,6809.894666,-888.247130,-81665.780087
141.399829,0.000000,-2072.576638,-78141.740796
141.402984,15100.201217,-1924.535449,-80899.684589
141.406138,18949.272115,-1776.494261,-83197.971083
141.409292,11399.171507,-2960.823768,-76456.330700
141.412447,-1184.329507,-1480.411884,-78907.836294
141.415601,-6809.894666,-3256.906145,-79827.150892
141.418755,-9326.594869,444.123565,-79827.150892
141.421910,-5033.400406,-740.205942,-76915.987999
141.425064,-8438.347739,-4885.359217,-80133.589091
141.428218,-3404.947333,-2368.659014,-80133.589091
141.431373,4589.276840,-2516.700203,-76456.330700
141.434527,-8438.347739,-2516.700203,-78601.398095
141.437682,-9622.677246,0.000000,-81206.122788
141.440836,-3256.906145,-444.123565,-78294.959896
141.443990,-1480.411884,296.082377,-78294.959896
141.447145,-7254.018232,-3849.070898,-77988.521696
141.450299,-18357.107362,-2072.576638,-79214.274493
141.453453,-11103.089130,-1184.329507,-78294.959896
141.456608,-12287.418637,-2368.659014,-75690.235202
141.459762,13619.789333,-740.205942,-77528.864398
141.462917,23390.507767,3701.029710,-83351.190182
141.466071,13619.789333,-1332.370696,-79367.493593
141.469225,2220.617826,-3256.906145,-77988.521696
141.472380,2960.823768,-1924.535449,-78294.959896
141.475534,6513.812290,-2516.700203,-77528.864398
141.478688,9622.677246,-592.164754,-80286.808190
141.481843,-14063.912898,-888.247130,-78448.178995
141.484997,2072.576638,888.247130,-81972.218286
141.488174,19541.436869,-1332.370696,-80746.465489
141.491352,23538.548956,-3108.864956,-78448.178995
141.494529,9770.718434,-6069.688724,-79673.931792
141.497706,-1332.370696,-2664.741391,-75843.454302
141.500883,-9474.636058,-2516.700203,-80899.684589
141.504060,-13915.871710,-1480.411884,-79980.369991
141.507238,-18505.148550,-148.041188,-79214.274493
141.510415,-2812.782580,888.247130,-79520.712692
141.513592,6069.688724,-2812.782580,-77528.864398
141.516769,-1776.494261,-4737.318029,-78754.617194
141.519946,-11103.089130,-2516.700203,-77069.207099
141.523123,-4737.318029,-888.247130,-78754.617194
141.526301,-3552.988522,-1184.329507,-79827.150892
141.529478,-9770.718434,-148.041188,-77682.083497
141.532655,-11251.130318,-592.164754,-78141.740796
141.535832,-3404.947333,-1924.535449,-79367.493593
141.539009,-6069.688724,-4441.235652,-81206.122788
141.542187,10807.006753,-740.205942,-76303.111601
141.545364,19097.313304,-1924.535449,-79520.712692
141.548541,2664.741391,-2812.782580,-80133.589091
141.551718,-5033.400406,1776.494261,-78294.959896
141.554895,-2368.659014,-2072.576638,-79520.712692
141.558073,13175.665768,-2220.617826,-81206.122788
141.561250,26795.455100,-5921.647536,-80440.027290
141.564444,-11399.171507,-2220.617826,-76762.768900
141.567639,-7254.018232,-3404.947333,-77069.207099
141.570834,8734.430116,-1924.535449,-81512.560987
141.574029,14656.077652,-1628.453072,-80286.808190
141.577224,9474.636058,-1332.370696,-77988.521696
141.580419,9326.594869,-2368.659014,-77528.864398
141.583614,-4589.276840,-3256.906145,-81512.560987
141.586809,-19245.354492,-4145.153275,-77988.521696
141.590004,-19541.436869,-3404.947333,-78141.740796
141.593199,-11251.130318,-1036.288319,-79827.150892
141.596394,5329.482782,888.247130,-79827.150892
141.599589,2812.782580,-1776.494261,-75996.673402
141.602783,-3997.112087,-1036.288319,-76915.987999
141.605978,6661.853478,-1924.535449,-79980.369991
141.609173,0.000000,-1924.535449,-78294.959896
141.612368,-19837.519246,-1924.535449,-78601.398095
141.615563,-25315.043216,-1184.329507,-77375.645298
141.618758,-11547.212695,888.247130,-80746.465489
141.621953,-4293.194464,-2072.576638,-80133.589091
141.625148,17172.777854,-2368.659014,-75996.673402
141.628343,27979.784608,-2960.823768,-79827.150892
141.631538,8882.471304,-2368.659014,-78907.836294
141.634733,-11695.253884,-1332.370696,-77988.521696
141.637928,-10955.047942,-592.164754,-77835.302597
141.641123,6513.812290,-444.123565,-81359.341888
141.644317,11695.253884,-148.041188,-81665.780087
141.647512,7550.100608,-1036.288319,-76915.987999
141.650707,5033.400406,-2516.700203,-78754.617194
141.653902,6661.853478,-3701.029710,-79367.493593
141.657097,15248.242405,592.164754,-76609.549800
141.660292,4441.235652,-3849.070898,-78448.178995
141.663487,1776.494261,296.082377,-80746.465489
141.666698,-2368.659014,-1776.494261,-80593.246390
141.669910,-8438.347739,-1036.288319,-77222.426198
141.673121,-8882.471304,-3552.988522,-79980.369991
141.676332,-8142.265362,-2072.576638,-77835.302597
141.679544,-1036.288319,-1776.494261,-79520.712692
141.682755,-6365.771101,-2220.617826,-77375.645298
141.685967,-8882.471304,740.205942,-77222.426198
141.689178,-1480.411884,1924.535449,-80133.589091
141.692389,3404.947333,-1628.453072,-78448.178995
141.695601,-9474.636058,-1480.411884,-76609.549800
141.698812,-18505.148550,-1480.411884,-79827.150892
141.702023,-22354.219448,-1332.370696,-79214.274493
141.705235,-10510.924376,-148.041188,-77069.207099
141.708446,19541.436869,296.082377,-78448.178995
141.711657,23242.466579,2516.700203,-81818.999186
141.714869,9918.759623,-1924.535449,-79214.274493
141.718080,-3997.112087,-4293.194464,-77835.302597
141.721292,-7402.059420,-888.247130,-77528.864398
141.724503,11991.336260,-1924.535449,-77988.521696
141.727714,148.041188,-2664.741391,-80440.027290
141.730926,-9918.759623,1184.329507,-78907.836294
141.734137,11103.089130,-3849.070898,-78907.836294
141.737348,17912.983796,-2960.823768,-79367.493593
141.740560,20429.683999,-1776.494261,-78601.398095
141.743771,5773.606348,-3108.864956,-75077.358804
141.746982,-5181.441594,-5033.400406,-79061.055394
141.750194,-19837.519246,-296.082377,-82431.875585
141.753405,-16876.695478,1036.288319,-77375.645298
141.756617,-2516.700203,-148.041188,-80746.465489
141.759828,296.082377,-4145.153275,-79673.931792
141.763039,-5773.606348,-444.123565,-77988.521696
141.766251,-13175.665768,-5329.482782,-77682.083497
141.769476,-13471.748144,-2516.700203,-78141.740796
141.772702,-7105.977043,-1036.288319,-81665.780087
141.775927,-4885.359217,740.205942,-79980.369991
141.779153,-9326.594869,-2220.617826,-74617.701505
141.782379,-10214.842000,-3552.988522,-79520.712692
141.785604,-10510.924376,-2072.576638,-78907.836294
141.788830,-2220.617826,-2516.700203,-76149.892501
141.792055,19541.436869,-3997.112087,-78907.836294
141.795281,12583.501014,-592.164754,-81512.560987
141.798506,-5477.523971,1332.370696,-79520.712692
141.801732,-1924.535449,-4293.194464,-78294.959896
141.804958,7994.224174,-4293.194464,-78448.178995
141.808183,24722.878463,-2812.782580,-80593.246390
141.811409,1628.453072,-740.205942,-76609.549800
141.814634,-11695.253884,-2812.782580,-78141.740796
141.817860,3108.864956,-444.123565,-79827.150892
141.821086,14804.118840,1184.329507,-81359.341888
141.824311,14211.954086,-1480.411884,-79980.369991
141.827537,13619.789333,-3701.029710,-77069.207099
141.830762,-740.205942,-1184.329507,-80286.808190
141.833988,-22798.343014,-3997.112087,-79827.150892
141.837213,-20873.807564,-2960.823768,-76609.549800
141.840439,-9474.636058,148.041188,-80746.465489
141.843665,592.164754,2220.617826,-80133.589091
141.846890,8586.388927,-4145.153275,-77069.207099
141.850116,-5181.441594,-3256.906145,-77222.426198
141.853341,2664.741391,-1332.370696,-79061.055394
141.856567,-4441.235652,1480.411884,-78141.740796
141.859793,-14211.954086,-4441.235652,-78141.740796
141.863018,-23094.425390,-4885.359217,-79673.931792
141.866244,-16876.695478,3997.112087,-79061.055394
141.869469,-4441.235652,-148.041188,-79061.055394
141.872706,19837.519246,-4885.359217,-77528.864398
141.875943,25907.207970,444.123565,-79214.274493
141.879180,5625.565159,-2072.576638,-79520.712692
141.882417,-12731.542202,-3404.947333,-78294.959896
141.885654,-8438.347739,-592.164754,-76762.768900
141.888891,9918.759623,-1036.288319,-81206.122788
141.892128,14359.995275,296.082377,-80286.808190
141.895365,9622.677246,-3108.864956,-77835.302597
141.898602,-888.247130,-2516.700203,-79673.931792
141.901839,13915.871710,-444.123565,-79214.274493
141.905076,13767.830521,-1628.453072,-78141.740796
141.908313,-148.041188,-2812.782580,-79520.712692
141.911550,2664.741391,1924.535449,-80133.589091
141.914787,-9326.594869,-3256.906145,-79980.369991
141.918024,-11103.089130,-1332.370696,-76915.987999
141.921261,-1184.329507,-1776.494261,-78907.836294
141.924498,-2812.782580,-3849.070898,-79673.931792
141.927735,-10066.800811,-1776.494261,-78754.617194
141.930972,-6661.853478,-3701.029710,-76762.768900
141.934209,-7402.059420,1924.535449,-80286.808190
141.937446,-3256.906145,-888.247130,-81052.903688
141.940683,-1480.411884,-740.205942,-76609.549800
141.943920,-15396.283594,-3108.864956,-77222.426198
141.947157,-16876.695478,-4145.153275,-79980.369991
141.950394,-17172.777854,-296.082377,-78141.740796
141.953631,3552.988522,-2072.576638,-76609.549800
141.956868,30348.443622,-1036.288319,-79827.150892
141.960105,13471.748144,2664.741391,-81818.999186
141.963342,-740.205942,-2664.741391,-77988.521696
141.966579,-6513.812290,-4737.318029,-77835.302597
141.969816,5477.523971,0.000000,-78754.617194
141.973053,17764.942608,-1628.453072,-80440.027290
141.976300,-11843.295072,-2664.741391,-81665.780087
141.979547,-1480.411884,-296.082377,-77222.426198
141.982794,20281.642811,-2072.576638,-79214.274493
141.986041,21317.931130,-2812.782580,-83964.066581
141.989287,13175.665768,-5033.400406,-77528.864398
141.992534,4885.359217,-4737.318029,-79214.274493
141.995781,-19837.519246,-2072.576638,-80440.027290
141.999028,-22798.343014,-1332.370696,-77222.426198
142.002275,-10807.006753,-1332.370696,-79827.150892
142.005522,0.000000,0.000000,-79673.931792
142.008769,15988.448347,-2220.617826,-78601.398095
142.012015,-6957.935855,-1332.370696,-78141.740796
142.015262,-9918.759623,-2960.823768,-79214.274493
142.018509,-2812.782580,-3404.947333,-79367.493593
142.021756,-13471.748144,-1924.535449,-80593.246390
142.025003,-14952.160028,1776.494261,-77069.207099
142.028250,-11103.089130,-4885.359217,-80746.465489
142.031496,-6957.935855,-1332.370696,-81359.341888
142.034743,7105.977043,-3404.947333,-77069.207099
142.037990,26943.496289,-4293.194464,-77222.426198
142.041237,13767.830521,-296.082377,-81052.903688
142.044484,-13323.706956,-2368.659014,-78294.959896
142.047731,-11399.171507,-888.247130,-76762.768900
142.050977,8438.347739,-1776.494261,-79520.712692
142.054224,19245.354492,-2220.617826,-81972.218286
142.057471,8882.471304,-2368.659014,-78754.617194
142.060718,2220.617826,-2368.659014,-76915.987999
142.063965,3256.906145,-2220.617826,-80286.808190
142.067212,17024.736666,2220.617826,-79367.493593
142.070459,15840.407159,-592.164754,-81052.903688
142.073705,6365.771101,-740.205942,-81665.780087
142.076952,-9030.512492,-3404.947333,-81512.560987
142.080166,-16728.654289,-740.205942,-79061.055394
142.083380,-14063.912898,-2960.823768,-75230.577904
142.086594,-4885.359217,-2664.741391,-79520.712692
142.089808,-3108.864956,1036.288319,-79520.712692
142.093021,-8882.471304,1036.288319,-78141.740796
142.096235,-2220.617826,-1628.453072,-78907.836294
142.099449,10362.883188,-148.041188,-79520.712692
142.102663,-296.082377,-888.247130,-78141.740796
142.105877,-20725.766376,-2960.823768,-73851.606007
142.109091,-25018.960840,-4737.318029,-79673.931792
142.112304,-18505.148550,-296.082377,-79980.369991
142.115518,6365.771101,-1184.329507,-78448.178995
142.118732,31680.814318,-1924.535449,-77528.864398
142.121946,23242.466579,296.082377,-79673.931792
142.125160,-5773.606348,-2220.617826,-80133.589091
142.128374,-10214.842000,-4885.359217,-77069.207099
142.131587,-888.247130,-2960.823768,-78448.178995
142.134801,10066.800811,0.000000,-80286.808190
142.138015,7105.977043,2072.576638,-77375.645298
142.141229,-1184.329507,-740.205942,-80133.589091
142.144443,17616.901420,-2960.823768,-80746.465489
142.147657,23094.425390,-296.082377,-79520.712692
142.150870,11843.295072,-740.205942,-77375.645298
142.154084,-1332.370696,-3404.947333,-76149.892501
142.157298,-23538.548956,-888.247130,-82738.313784
142.160512,-18505.148550,1332.370696,-78907.836294
142.163726,-4293.194464,-3256.906145,-77375.645298
142.166940,6661.853478,-2960.823768,-82125.437386
142.170154,13027.624579,-3997.112087,-77222.426198
142.173367,-12139.377449,-1924.535449,-75843.454302
142.176581,-11695.253884,-3701.029710,-80899.684589
142.179795,-1036.288319,296.082377,-82125.437386
142.183023,-10066.800811,148.041188,-80746.465489
142.186250,-16580.613101,-592.164754,-78907.836294
142.189478,-9770.718434,-3997.112087,-76456.330700
142.192706,-13767.830521,-1036.288319,-80133.589091
142.195934,15248.242405,-2368.659014,-76303.111601
142.199161,22798.343014,-2516.700203,-78294.959896
142.202389,6957.935855,-444.123565,-81359.341888
142.205617,-5625.565159,1480.411884,-79367.493593
142.208845,-5477.523971,1480.411884,-80440.027290
142.212072,13323.706956,-1480.411884,-77988.521696
142.215300,21465.972318,-2072.576638,-80286.808190
142.218528,-6365.771101,592.164754,-77069.207099
142.221756,-2812.782580,-4589.276840,-76456.330700
142.224983,10807.006753,-1184.329507,-81665.780087
142.228211,15248.242405,1480.411884,-79673.931792
142.231439,15544.324782,-2960.823768,-78754.617194
142.234667,5181.441594,-3552.988522,-78141.740796
142.237894,-18653.189738,-5181.441594,-79520.712692
142.241122,-19245.354492,-1924.535449,-77835.302597
142.244350,-8734.430116,-1036.288319,-78448.178995
142.247577,-888.247130,-1036.288319,-80593.246390
142.250805,-7550.100608,444.123565,-79367.493593
142.254033,-11843.295072,-2368.659014,-78141.740796
142.257261,2368.659014,-2072.576638,-77682.083497
142.260488,3108.864956,1628.453072,-81972.218286
142.263716,-10807.006753,-3404.947333,-78448.178995
142.266944,-23834.631332,-2516.700203,-75843.454302
142.270172,-21762.054695,0.000000,-80286.808190
142.273399,-9474.636058,2072.576638,-80899.684589
142.276627,28868.031738,-1924.535449,-77069.207099
142.279855,30496.484810,-296.082377,-78141.740796
142.283083,3849.070898,-1924.535449,-79827.150892
142.286322,-10214.842000,-4885.359217,-77835.302597
142.289561,-4145.153275,-3849.070898,-78601.398095
142.292800,10066.800811,-2812.782580,-78907.836294
142.296040,3404.947333,-1480.411884,-78601.398095
142.299279,9474.636058,148.041188,-79061.055394
142.302518,11103.089130,-4885.359217,-80440.027290
142.305758,20429.683999,-2516.700203,-81512.560987
142.308997,15988.448347,-2072.576638,-77375.645298
142.312236,2812.782580,-5033.400406,-77069.207099
142.315475,-12731.542202,-592.164754,-80133.589091
142.318715,-25907.207970,-1036.288319,-78601.398095
142.321954,-12435.459826,-444.123565,-79367.493593
142.325193,8438.347739,-1184.329507,-79061.055394
142.328433,12287.418637,-3108.864956,-80899.684589
142.331672,-7254.018232,-1924.535449,-77069.207099
142.334911,-15396.283594,-4737.318029,-75230.577904
142.338150,-9622.677246,-3552.988522,-80286.808190
142.341390,444.123565,5181.441594,-78907.836294
142.344629,-12287.418637,-3108.864956,-79520.712692
142.347868,-14211.954086,-6217.729913,-81512.560987
142.351108,-9622.677246,1036.288319,-79673.931792
142.354347,7994.224174,-3404.947333,-77528.864398
142.357586,24870.919651,-5625.565159,-77375.645298
142.360826,6661.853478,-2664.741391,-80286.808190
142.390062,13767.830521,-888.247130,-80899.684589
142.393310,6809.894666,-1924.535449,-77222.426198
142.396559,-19541.436869,-1924.535449,-80746.465489
142.399807,-25611.125593,-2072.576638,-78601.398095
142.403056,-8882.471304,-1628.453072,-77528.864398
142.406304,1332.370696,-2812.782580,-82125.437386
142.409553,-7254.018232,296.082377,-77682.083497
142.412801,-7698.141797,-3552.988522,-76762.768900
142.416050,-740.205942,-2516.700203,-79061.055394
142.419298,9326.594869,0.000000,-79367.493593
142.422547,-12731.542202,-1628.453072,-78448.178995
142.425795,-27239.578666,-2960.823768,-75690.235202
142.429044,-22502.260637,740.205942,-78448.178995
142.432292,-6661.853478,148.041188,-80593.246390
142.435541,31828.855506,-296.082377,-79367.493593
142.438789,31236.690752,148.041188,-78601.398095
142.442038,-888.247130,-2220.617826,-81052.903688
