#time,accel_x,accel_y,accel_z
12591.050325,3552.988522,0.000000,-76149.892501
12591.052902,-6957.935855,-2664.741391,-77069.207099
12591.055480,1480.411884,2812.782580,-77375.645298
12591.058057,5921.647536,-4737.318029,-76609.549800
12591.060634,-6217.729913,148.041188,-76149.892501
12591.063211,2812.782580,2072.576638,-76149.892501
12591.065788,4737.318029,-3404.947333,-76915.987999
12591.068366,-3701.029710,-1628.453072,-77528.864398
12591.070757,-3997.112087,148.041188,-77682.083497
12591.073148,6365.771101,-2664.741391,-78141.740796
12591.075539,-3997.112087,-1332.370696,-77835.302597
12591.077929,-4145.153275,888.247130,-78294.959896
12591.080320,6365.771101,-2072.576638,-78294.959896
12591.082711,-5033.400406,-1184.329507,-76915.987999
12591.085102,-2664.741391,-740.205942,-78754.617194
12591.087493,4441.235652,-296.082377,-77988.521696
12591.089884,2664.741391,-1036.288319,-76149.892501
12591.092275,-6217.729913,-2220.617826,-78294.959896
12591.094666,2516.700203,2812.782580,-77682.083497
12591.097057,4441.235652,-2072.576638,-77835.302597
12591.099448,-8882.471304,-1776.494261,-78448.178995
12591.101839,4885.359217,1480.411884,-76456.330700
12591.104230,5329.482782,-4293.194464,-77682.083497
12591.106621,-4441.235652,296.082377,-79214.274493
12591.109012,4589.276840,296.082377,-77528.864398
12591.111403,10955.047942,-3701.029710,-78294.959896
12591.113794,10658.965565,-740.205942,-78294.959896
12591.116185,19689.478057,0.000000,-77682.083497
12591.118576,6661.853478,-2072.576638,-75537.016103
12591.120967,-15100.201217,-1924.535449,-75843.454302
12591.123358,-6809.894666,148.041188,-78294.959896
12591.125749,1628.453072,-1924.535449,-77222.426198
12591.128140,-1332.370696,-740.205942,-75537.016103
12591.130531,-4737.318029,-740.205942,-77835.302597
12591.132922,2960.823768,1184.329507,-78141.740796
12591.135313,-12139.377449,-3404.947333,-75843.454302
12591.137704,-10807.006753,2516.700203,-77528.864398
12591.140095,1184.329507,-1184.329507,-79367.493593
12591.142486,4737.318029,-2664.741391,-77988.521696
12591.144877,-1924.535449,888.247130,-77835.302597
12591.147268,-888.247130,148.041188,-77835.302597
12591.149659,-14063.912898,-3256.906145,-77682.083497
12591.152050,-8586.388927,-2516.700203,-77988.521696
12591.154441,-1924.535449,592.164754,-77835.302597
12591.156832,3256.906145,-1628.453072,-75230.577904
12591.159223,-4145.153275,-4145.153275,-77682.083497
12591.161614,592.164754,1036.288319,-78754.617194
12591.164005,592.164754,-2220.617826,-77835.302597
12591.166454,-6957.935855,-1036.288319,-74924.139704
12591.168903,3849.070898,2812.782580,-76456.330700
12591.171352,5033.400406,-4589.276840,-79367.493593
12591.173801,-5773.606348,-1332.370696,-74924.139704
12591.176250,-9770.718434,148.041188,-78294.959896
12591.178699,-4441.235652,-1184.329507,-79061.055394
12591.181148,-10510.924376,-2960.823768,-80133.589091
12591.183597,-3108.864956,3108.864956,-75843.454302
12591.186046,5329.482782,-3701.029710,-78294.959896
12591.188495,-5329.482782,-444.123565,-77528.864398
12591.190944,-2516.700203,148.041188,-79061.055394
12591.193393,-1628.453072,-1628.453072,-78141.740796
12591.195842,-4293.194464,-2220.617826,-78141.740796
12591.198291,-10955.047942,-1332.370696,-78294.959896
12591.200740,6217.729913,1332.370696,-78754.617194
12591.203189,444.123565,-2072.576638,-76456.330700
12591.205638,-4589.276840,1184.329507,-77682.083497
12591.208087,6365.771101,-444.123565,-79673.931792
12591.210536,8142.265362,-4441.235652,-77835.302597
12591.212986,-2220.617826,1036.288319,-77528.864398
12591.215435,444.123565,2220.617826,-77988.521696
12591.217884,-1332.370696,-5625.565159,-78907.836294
12591.220333,-4441.235652,-2072.576638,-77835.302597
12591.222782,5625.565159,592.164754,-78141.740796
12591.225231,15396.283594,-3256.906145,-77682.083497
12591.227680,3701.029710,-2812.782580,-76609.549800
12591.230129,7254.018232,1924.535449,-77375.645298
12591.232578,-3108.864956,-3997.112087,-77222.426198
12591.235027,-3849.070898,-2220.617826,-76303.111601
12591.237476,-444.123565,444.123565,-78141.740796
12591.239925,13915.871710,148.041188,-78754.617194
12591.242374,5033.400406,-3404.947333,-77835.302597
12591.244823,7698.141797,148.041188,-77222.426198
12591.247272,2664.741391,0.000000,-79214.274493
12591.249721,-3997.112087,-2664.741391,-77988.521696
12591.252170,-888.247130,1480.411884,-75690.235202
12591.254619,7550.100608,-740.205942,-78448.178995
12591.257068,-3701.029710,-3256.906145,-79673.931792
12591.259517,6365.771101,148.041188,-79520.712692
12591.261966,-6809.894666,1924.535449,-77682.083497
12591.264455,10214.842000,-1924.535449,-76915.987999
12591.266943,-3849.070898,-2664.741391,-79367.493593
12591.269431,5477.523971,2516.700203,-76915.987999
12591.271919,7994.224174,-4145.153275,-79673.931792
12591.274407,3849.070898,0.000000,-72779.072310
12591.276895,7105.977043,592.164754,-80593.246390
12591.279384,2812.782580,-3108.864956,-75843.454302
12591.281872,-6365.771101,-1332.370696,-78754.617194
12591.284360,-2072.576638,2368.659014,-80133.589091
12591.286848,11251.130318,-1628.453072,-77222.426198
12591.289336,4293.194464,-2516.700203,-78448.178995
12591.291824,6661.853478,-1480.411884,-76609.549800
12591.294313,9474.636058,-1776.494261,-80286.808190
12591.296801,-3701.029710,-1036.288319,-76762.768900
12591.299289,-10510.924376,296.082377,-78294.959896
12591.301777,3256.906145,-296.082377,-77069.207099
12591.304265,0.000000,-4885.359217,-77222.426198
12591.306753,-1036.288319,-296.082377,-76149.892501
12591.309242,444.123565,888.247130,-77528.864398
12591.311730,296.082377,-1480.411884,-77069.207099
12591.314218,-10066.800811,-888.247130,-77069.207099
12591.316706,-444.123565,740.205942,-77835.302597
12591.319194,-5181.441594,-2664.741391,-77069.207099
12591.321682,-7698.141797,1036.288319,-76303.111601
12591.324171,-1776.494261,296.082377,-78907.836294
12591.326659,2960.823768,-2812.782580,-78448.178995
12591.329147,-5477.523971,-1480.411884,-76762.768900
12591.331635,-148.041188,1184.329507,-78294.959896
12591.334123,0.000000,-3108.864956,-78754.617194
12591.336611,-4885.359217,-1332.370696,-77069.207099
12591.339100,-592.164754,444.123565,-79367.493593
12591.341588,1628.453072,-3256.906145,-79367.493593
12591.344076,-5181.441594,-2960.823768,-76609.549800
12591.346564,-2516.700203,1036.288319,-76303.111601
12591.349052,5181.441594,1924.535449,-76456.330700
12591.351540,-1332.370696,-3552.988522,-78601.398095
12591.354029,-3108.864956,1332.370696,-77988.521696
12591.356517,3108.864956,1036.288319,-77375.645298
12591.359005,444.123565,-2664.741391,-78141.740796
12591.361493,-14211.954086,-740.205942,-77222.426198
12591.364008,1184.329507,296.082377,-77988.521696
12591.366523,-8290.306550,-2368.659014,-77682.083497
12591.369038,-11695.253884,-148.041188,-74004.825107
12591.371553,-2220.617826,148.041188,-76915.987999
12591.374068,-1036.288319,-2516.700203,-77528.864398
12591.376583,-6513.812290,-740.205942,-76149.892501
12591.379098,1480.411884,1628.453072,-77682.083497
12591.381613,-2664.741391,-3108.864956,-77069.207099
12591.384128,-10658.965565,-592.164754,-77069.207099
12591.386643,-4441.235652,-296.082377,-78294.959896
12591.389158,-1184.329507,-2812.782580,-77682.083497
12591.391673,-5773.606348,-740.205942,-78141.740796
12591.394188,-148.041188,1776.494261,-78754.617194
12591.396703,6217.729913,-1332.370696,-79520.712692
12591.399218,6957.935855,-4737.318029,-77069.207099
12591.401732,-740.205942,444.123565,-79673.931792
12591.404247,4145.153275,0.000000,-79367.493593
12591.406762,-7698.141797,-1184.329507,-77835.302597
12591.409277,-2072.576638,-3108.864956,-76149.892501
12591.411792,8438.347739,-1480.411884,-78141.740796
12591.414307,12879.583391,-1036.288319,-77069.207099
12591.416822,3404.947333,-888.247130,-75843.454302
12591.419337,6365.771101,592.164754,-77682.083497
12591.421852,-4145.153275,-2368.659014,-75230.577904
12591.424367,-1924.535449,0.000000,-76762.768900
12591.426882,2812.782580,-296.082377,-77835.302597
12591.429397,6513.812290,-2220.617826,-78907.836294
12591.431912,-1036.288319,-1332.370696,-76915.987999
12591.434427,4737.318029,0.000000,-76915.987999
12591.436942,2960.823768,-296.082377,-78294.959896
12591.439457,-3997.112087,-1924.535449,-77835.302597
12591.441972,1480.411884,-444.123565,-74464.482406
12591.444487,7105.977043,444.123565,-79214.274493
12591.447002,-2664.741391,-2812.782580,-77682.083497
12591.449517,-740.205942,-740.205942,-77222.426198
12591.452032,-2960.823768,-444.123565,-78907.836294
12591.454547,9474.636058,-2960.823768,-75230.577904
12591.457062,-1924.535449,1036.288319,-79520.712692
12591.459576,10658.965565,1480.411884,-76915.987999
12591.462091,11547.212695,-3701.029710,-79367.493593
12591.464621,-592.164754,-1332.370696,-77988.521696
12591.467151,2664.741391,1036.288319,-75996.673402
12591.469681,3997.112087,-4737.318029,-77682.083497
12591.472211,-3997.112087,-2220.617826,-77222.426198
12591.474741,10066.800811,3108.864956,-78754.617194
12591.477271,9474.636058,-3849.070898,-77835.302597
12591.479801,2220.617826,-2812.782580,-75843.454302
12591.482330,-2368.659014,-888.247130,-76762.768900
12591.484860,444.123565,2072.576638,-78141.740796
12591.487390,-3849.070898,-3108.864956,-77069.207099
12591.489920,-2220.617826,1036.288319,-77988.521696
12591.492450,4441.235652,-2072.576638,-78601.398095
12591.494980,-296.082377,-1332.370696,-77528.864398
12591.497510,-6661.853478,888.247130,-76303.111601
12591.500039,3997.112087,740.205942,-78754.617194
12591.502569,-4737.318029,-4441.235652,-78448.178995
12591.505099,-9326.594869,-148.041188,-75383.797003
12591.507629,-3404.947333,592.164754,-78448.178995
12591.510159,-3997.112087,-1628.453072,-77528.864398
12591.512689,-9770.718434,-2368.659014,-77682.083497
12591.515219,592.164754,888.247130,-77682.083497
12591.517748,-148.041188,-3552.988522,-76915.987999
12591.520278,-5625.565159,-148.041188,-76762.768900
12591.522808,-5181.441594,592.164754,-78294.959896
12591.525338,592.164754,-1332.370696,-80133.589091
12591.527868,-5477.523971,-3108.864956,-77988.521696
12591.530398,-7105.977043,-888.247130,-77375.645298
12591.532928,7698.141797,-2664.741391,-76915.987999
12591.535458,-11695.253884,-2960.823768,-78754.617194
12591.537987,2664.741391,740.205942,-79367.493593
12591.540517,-740.205942,-2664.741391,-80133.589091
12591.543047,3849.070898,-2960.823768,-75077.358804
12591.545577,-9474.636058,2368.659014,-77069.207099
12591.548107,3997.112087,-444.123565,-76609.549800
12591.550637,-4885.359217,-2664.741391,-79061.055394
12591.553167,-14359.995275,-296.082377,-77375.645298
12591.555696,-5477.523971,592.164754,-77222.426198
12591.558226,-5625.565159,-3108.864956,-76609.549800
12591.560756,-7698.141797,1036.288319,-77222.426198
12591.563286,3552.988522,1480.411884,-78601.398095
12591.565827,-2516.700203,-3552.988522,-76915.987999
12591.568368,-9030.512492,-296.082377,-78294.959896
12591.570910,-5773.606348,-296.082377,-78294.959896
12591.573451,1924.535449,-2960.823768,-78907.836294
12591.575992,-5477.523971,-2220.617826,-76303.111601
12591.578533,1332.370696,2368.659014,-77835.302597
12591.581075,7402.059420,-3552.988522,-77682.083497
12591.583616,1924.535449,-4737.318029,-78141.740796
12591.586157,3256.906145,2220.617826,-77988.521696
12591.588698,592.164754,-2960.823768,-77528.864398
12591.591239,-6365.771101,-2072.576638,-77069.207099
12591.593781,-2368.659014,-2072.576638,-75690.235202
12591.596322,7994.224174,-740.205942,-77528.864398
12591.598863,9178.553681,-2220.617826,-77682.083497
12591.601404,5033.400406,1036.288319,-78448.178995
12591.603946,12435.459826,740.205942,-78294.959896
12591.606487,-3701.029710,-2960.823768,-76149.892501
12591.609028,-4737.318029,444.123565,-76915.987999
12591.611569,6513.812290,-592.164754,-78754.617194
12591.614110,3552.988522,-1184.329507,-77835.302597
12591.616652,6217.729913,-2220.617826,-77528.864398
12591.619193,6513.812290,888.247130,-78294.959896
12591.621734,-3552.988522,-3849.070898,-77222.426198
12591.624275,-3404.947333,-888.247130,-74311.263306
12591.626817,592.164754,-1184.329507,-77069.207099
12591.629358,2368.659014,-2072.576638,-80440.027290
12591.631899,-4145.153275,-444.123565,-78448.178995
12591.634440,-1776.494261,1184.329507,-77835.302597
12591.636981,4589.276840,-444.123565,-79214.274493
12591.639523,-740.205942,-2516.700203,-77988.521696
12591.642064,1924.535449,296.082377,-76609.549800
12591.644605,14359.995275,-2516.700203,-78294.959896
12591.647146,4885.359217,-2516.700203,-79520.712692
12591.649688,2516.700203,1628.453072,-79980.369991
12591.652229,6809.894666,-2664.741391,-77835.302597
12591.654770,-1480.411884,-2220.617826,-76456.330700
12591.657311,4589.276840,1036.288319,-78448.178995
12591.659853,11251.130318,148.041188,-77835.302597
12591.662394,6957.935855,-3404.947333,-77835.302597
12591.664935,-1332.370696,-2072.576638,-75843.454302
12591.667482,-2812.782580,2220.617826,-77375.645298
12591.670029,-4589.276840,-1480.411884,-77222.426198
12591.672576,-3256.906145,-740.205942,-77069.207099
12591.675123,3701.029710,1184.329507,-77988.521696
12591.677670,740.205942,-1480.411884,-77682.083497
12591.680217,-7105.977043,0.000000,-77528.864398
12591.682764,-3108.864956,1776.494261,-78448.178995
12591.685312,-444.123565,-2220.617826,-76915.987999
12591.687859,-9030.512492,-2960.823768,-76456.330700
12591.690406,-3256.906145,1332.370696,-78448.178995
12591.692953,-3256.906145,-1776.494261,-79061.055394
12591.695500,-8734.430116,-1480.411884,-78448.178995
12591.698047,-1924.535449,-592.164754,-76762.768900
12591.700594,2368.659014,-1036.288319,-77835.302597
12591.703141,-4737.318029,-1628.453072,-77835.302597
12591.705688,-12583.501014,148.041188,-77375.645298
12591.708235,5329.482782,-2220.617826,-78601.398095
12591.710782,1480.411884,-2368.659014,-78754.617194
12591.713329,-8882.471304,888.247130,-78754.617194
12591.715876,3404.947333,444.123565,-78294.959896
12591.718423,296.082377,-4589.276840,-75230.577904
12591.720970,-4589.276840,-444.123565,-77222.426198
12591.723518,3701.029710,1628.453072,-79520.712692
12591.726065,3256.906145,-2812.782580,-78141.740796
12591.728612,-12139.377449,-1924.535449,-76915.987999
12591.731159,-1924.535449,148.041188,-77375.645298
12591.733706,-2812.782580,-1924.535449,-76149.892501
12591.736253,-13915.871710,-1776.494261,-78448.178995
12591.738800,-4293.194464,2516.700203,-77069.207099
12591.741347,-2960.823768,-2960.823768,-78601.398095
12591.743894,-4441.235652,-148.041188,-76149.892501
12591.746441,-1184.329507,-444.123565,-77375.645298
12591.748988,592.164754,148.041188,-78448.178995
12591.751535,-6513.812290,-2516.700203,-78907.836294
12591.754082,-4145.153275,2368.659014,-79061.055394
12591.756629,1628.453072,-592.164754,-79061.055394
12591.759176,592.164754,-1332.370696,-77835.302597
12591.761724,-444.123565,-1480.411884,-77988.521696
12591.764271,15100.201217,-1628.453072,-77222.426198
12591.766818,-148.041188,-1776.494261,-78754.617194
12591.769369,-2072.576638,2368.659014,-79061.055394
12591.771921,-3552.988522,0.000000,-77988.521696
12591.774472,1628.453072,-2220.617826,-77069.207099
12591.777023,-2664.741391,-2368.659014,-76303.111601
12591.779575,15692.365970,592.164754,-77222.426198
12591.782126,10955.047942,-2072.576638,-77069.207099
12591.784678,3404.947333,592.164754,-77222.426198
12591.787229,-296.082377,888.247130,-77528.864398
12591.789780,-1776.494261,-2072.576638,-76762.768900
12591.792332,-3849.070898,-1924.535449,-77222.426198
12591.794883,12139.377449,-1480.411884,-77069.207099
12591.797435,7994.224174,-592.164754,-78754.617194
12591.799986,-4589.276840,-2220.617826,-77682.083497
12591.802537,2072.576638,0.000000,-78294.959896
12591.805089,1036.288319,-1776.494261,-74004.825107
12591.807640,-2072.576638,-2072.576638,-78907.836294
12591.810192,-2960.823768,1628.453072,-80746.465489
12591.812743,4293.194464,-2960.823768,-78294.959896
12591.815294,296.082377,-4589.276840,-76456.330700
12591.817846,-3108.864956,444.123565,-77069.207099
12591.820397,9918.759623,-1036.288319,-77222.426198
12591.822949,10510.924376,-2072.576638,-78907.836294
12591.825500,4145.153275,-296.082377,-78907.836294
12591.828051,10807.006753,444.123565,-78294.959896
12591.830603,1480.411884,-4885.359217,-77835.302597
12591.833154,-1480.411884,1036.288319,-75996.673402
12591.835706,9918.759623,-148.041188,-77375.645298
12591.838257,7254.018232,-1628.453072,-78601.398095
12591.840808,-1184.329507,-3552.988522,-77835.302597
12591.843360,3849.070898,-148.041188,-77682.083497
12591.845911,-3701.029710,-1332.370696,-76915.987999
12591.848463,-7254.018232,-1924.535449,-77375.645298
12591.851017,-2220.617826,-296.082377,-77682.083497
12591.853571,6069.688724,-592.164754,-77375.645298
12591.856125,-296.082377,-1924.535449,-77835.302597
12591.858679,-4293.194464,1480.411884,-78754.617194
12591.861233,1184.329507,-296.082377,-79061.055394
12591.863788,-1480.411884,-296.082377,-77528.864398
12591.866342,-12287.418637,-5033.400406,-76915.987999
12591.868896,-3552.988522,3701.029710,-77682.083497
12591.871450,-3997.112087,-4145.153275,-78141.740796
12591.874004,-7994.224174,888.247130,-77069.207099
12591.876558,592.164754,148.041188,-78294.959896
12591.879113,1036.288319,-1184.329507,-76762.768900
12591.881667,-3849.070898,-2072.576638,-77528.864398
12591.884221,-6809.894666,2072.576638,-77682.083497
12591.886775,6513.812290,-888.247130,-79061.055394
12591.889329,-6513.812290,-1628.453072,-80133.589091
12591.891883,-1924.535449,148.041188,-78448.178995
12591.894438,3404.947333,-2812.782580,-75690.235202
12591.896992,1036.288319,-2812.782580,-76456.330700
12591.899546,-2072.576638,-1184.329507,-79061.055394
12591.902100,-296.082377,1332.370696,-79673.931792
12591.904654,-8586.388927,-4589.276840,-77835.302597
12591.907208,-1924.535449,1924.535449,-75996.673402
12591.909763,-5625.565159,444.123565,-76456.330700
12591.912317,-8142.265362,-3552.988522,-74770.920605
12591.914871,-14359.995275,-1332.370696,-77988.521696
12591.917425,592.164754,3552.988522,-79061.055394
12591.919979,-740.205942,-2516.700203,-78754.617194
12591.922533,-5921.647536,444.123565,-75843.454302
12591.925088,-1924.535449,-296.082377,-76762.768900
12591.927642,-3108.864956,-2072.576638,-78448.178995
12591.930196,-8290.306550,444.123565,-77835.302597
12591.932750,-444.123565,3701.029710,-79367.493593
12591.935304,5181.441594,-3997.112087,-77988.521696
12591.937858,3701.029710,-4441.235652,-76762.768900
12591.940413,5921.647536,740.205942,-78294.959896
12591.942967,740.205942,-2072.576638,-79061.055394
12591.945521,-9326.594869,-1480.411884,-77835.302597
12591.948075,740.205942,-740.205942,-77988.521696
12591.950629,4737.318029,-2960.823768,-77988.521696
12591.953108,6661.853478,-2812.782580,-78141.740796
12591.955588,9622.677246,296.082377,-78448.178995
12591.958067,14508.036463,-444.123565,-78754.617194
12591.960546,740.205942,-3108.864956,-77835.302597
12591.963025,-7105.977043,1036.288319,-76303.111601
12591.965504,8586.388927,-888.247130,-78294.959896
12591.967983,8142.265362,-1924.535449,-78448.178995
12591.970463,-2664.741391,1480.411884,-79367.493593
12591.972942,1628.453072,-592.164754,-77988.521696
12591.975421,6957.935855,-3108.864956,-79827.150892
12591.977900,-7550.100608,-2664.741391,-77069.207099
12591.980379,2516.700203,2072.576638,-73391.948708
12591.982858,5033.400406,-3108.864956,-78601.398095
12591.985337,-296.082377,-2072.576638,-78448.178995
12591.987817,-1480.411884,1036.288319,-78601.398095
12591.990296,2664.741391,-2960.823768,-75230.577904
12591.992775,444.123565,-1776.494261,-75230.577904
12591.995254,11103.089130,0.000000,-79980.369991
12591.997733,11843.295072,-1480.411884,-78141.740796
12592.000212,2220.617826,-2220.617826,-79673.931792
12592.002691,-1628.453072,1184.329507,-78448.178995
12592.005171,6957.935855,-1036.288319,-79673.931792
12592.007650,4441.235652,-1036.288319,-77528.864398
12592.010129,4737.318029,-740.205942,-77835.302597
12592.012608,12435.459826,-1924.535449,-79980.369991
12592.015087,-5477.523971,-1628.453072,-77835.302597
12592.017566,-5625.565159,-148.041188,-77835.302597
12592.020046,-1036.288319,148.041188,-77375.645298
12592.022525,1332.370696,-3256.906145,-76609.549800
12592.025004,-3552.988522,-444.123565,-77375.645298
12592.027483,3404.947333,1184.329507,-78294.959896
12592.029962,-148.041188,-1628.453072,-77835.302597
12592.032441,-7846.182985,-888.247130,-77222.426198
12592.034920,-1924.535449,592.164754,-76609.549800
12592.037400,-5477.523971,-2664.741391,-76762.768900
12592.039879,-11991.336260,-148.041188,-77375.645298
12592.042358,-3849.070898,0.000000,-79673.931792
12592.044837,444.123565,-2072.576638,-79061.055394
12592.047316,-4441.235652,-1628.453072,-76456.330700
12592.049795,1184.329507,740.205942,-77528.864398
12592.052297,-2812.782580,-1628.453072,-79980.369991
12592.054799,-11547.212695,-2812.782580,-77835.302597
12592.057301,-1924.535449,148.041188,-77069.207099
12592.059803,1184.329507,-2220.617826,-77069.207099
12592.062305,-3552.988522,-2960.823768,-78294.959896
12592.064807,-3552.988522,-592.164754,-76915.987999
12592.067309,2812.782580,1332.370696,-79827.150892
12592.069811,-4441.235652,-592.164754,-78907.836294
12592.072313,-7698.141797,-1776.494261,-76303.111601
12592.074814,1924.535449,444.123565,-76456.330700
12592.077316,-5033.400406,-2812.782580,-77988.521696
12592.079818,-15100.201217,-444.123565,-79520.712692
12592.082320,-1036.288319,740.205942,-76915.987999
12592.084822,-4885.359217,-3701.029710,-76762.768900
12592.087324,-6069.688724,-1480.411884,-76915.987999
12592.089826,-1776.494261,740.205942,-76456.330700
12592.092328,-1480.411884,-4737.318029,-76915.987999
12592.094830,-7550.100608,-1628.453072,-77222.426198
12592.097332,0.000000,1628.453072,-77682.083497
12592.099834,1628.453072,296.082377,-77069.207099
12592.102336,-296.082377,-2516.700203,-76303.111601
12592.104837,11695.253884,444.123565,-77835.302597
12592.107339,5625.565159,-2516.700203,-77835.302597
12592.109841,-4737.318029,296.082377,-77528.864398
12592.112343,-6365.771101,-148.041188,-79214.274493
12592.114845,1628.453072,-2072.576638,-78448.178995
12592.117347,1628.453072,-2960.823768,-78141.740796
12592.119849,6365.771101,1628.453072,-78601.398095
12592.122351,19985.560434,-740.205942,-80746.465489
12592.124853,4145.153275,-1480.411884,-78141.740796
12592.127355,-3552.988522,0.000000,-77528.864398
12592.129857,740.205942,-1036.288319,-77682.083497
12592.132359,8142.265362,-2812.782580,-76915.987999
12592.134860,-4145.153275,-1480.411884,-78294.959896
12592.137362,7550.100608,148.041188,-78141.740796
12592.139864,7846.182985,-3997.112087,-76456.330700
12592.142366,-7550.100608,-1628.453072,-74311.263306
12592.144868,-1184.329507,1924.535449,-79061.055394
12592.147370,6365.771101,-1776.494261,-78294.959896
12592.149872,-5625.565159,-1184.329507,-76915.987999
12592.152391,-740.205942,296.082377,-78448.178995
12592.154911,7105.977043,-2960.823768,-76303.111601
12592.157430,-148.041188,-1332.370696,-75077.358804
12592.159949,4145.153275,1332.370696,-79520.712692
12592.162469,15988.448347,-1036.288319,-80746.465489
12592.164988,4737.318029,-2220.617826,-76456.330700
12592.167507,5921.647536,1036.288319,-77069.207099
12592.170026,4145.153275,-1776.494261,-78141.740796
12592.172546,888.247130,-2072.576638,-78294.959896
12592.175065,1332.370696,-296.082377,-77835.302597
12592.177584,5921.647536,-444.123565,-80440.027290
12592.180104,-2516.700203,-888.247130,-78754.617194
12592.182623,-8290.306550,740.205942,-77069.207099
12592.185142,-740.205942,-148.041188,-79061.055394
12592.187662,-1628.453072,-2664.741391,-77222.426198
12592.190181,-5773.606348,296.082377,-78448.178995
12592.192700,4293.194464,740.205942,-79061.055394
12592.195220,296.082377,-1924.535449,-78294.959896
12592.197739,-7994.224174,-3997.112087,-77222.426198
12592.200258,-2220.617826,1184.329507,-78141.740796
12592.202778,-6957.935855,-3849.070898,-77375.645298
12592.205297,-10362.883188,-1036.288319,-75996.673402
12592.207816,-3108.864956,-1184.329507,-77835.302597
12592.210336,1628.453072,-1924.535449,-77528.864398
12592.212855,-6661.853478,-2220.617826,-76303.111601
12592.215374,-2960.823768,1776.494261,-77222.426198
12592.217894,-740.205942,-3701.029710,-76456.330700
12592.220413,-9622.677246,-1924.535449,-76762.768900
12592.222932,-3256.906145,148.041188,-76762.768900
12592.225451,-592.164754,-592.164754,-78907.836294
12592.227971,6809.894666,-1924.535449,-78141.740796
12592.230490,-7698.141797,-740.205942,-79520.712692
12592.233009,1776.494261,740.205942,-77682.083497
12592.235529,-2072.576638,-2664.741391,-77375.645298
12592.238048,-9326.594869,2812.782580,-77835.302597
12592.240567,148.041188,-4293.194464,-80440.027290
12592.243087,-14063.912898,-296.082377,-76149.892501
12592.245606,-10066.800811,-1628.453072,-75230.577904
12592.248125,-3849.070898,2220.617826,-79367.493593
12592.250645,-296.082377,-3997.112087,-77528.864398
12592.253178,-6365.771101,-1184.329507,-78754.617194
12592.255712,-2368.659014,-296.082377,-76456.330700
12592.258246,-444.123565,-2072.576638,-77835.302597
12592.260780,-3849.070898,-740.205942,-77682.083497
12592.263313,-1480.411884,296.082377,-77988.521696
12592.265847,14952.160028,1628.453072,-76456.330700
12592.268381,6661.853478,-4737.318029,-75690.235202
12592.270915,-1924.535449,-148.041188,-76762.768900
12592.273448,-2072.576638,0.000000,-78448.178995
12592.275982,-3404.947333,0.000000,-75843.454302
12592.278516,-5773.606348,-3552.988522,-75230.577904
12592.281050,9770.718434,1776.494261,-77069.207099
12592.283583,14508.036463,-3108.864956,-80133.589091
12592.286117,8438.347739,1332.370696,-77222.426198
12592.288651,3701.029710,2960.823768,-77528.864398
12592.291185,296.082377,-4737.318029,-79061.055394
12592.293718,-4589.276840,148.041188,-77222.426198
12592.296252,1332.370696,-740.205942,-80133.589091
12592.298786,12139.377449,-1332.370696,-77988.521696
12592.301320,148.041188,-2960.823768,-76149.892501
12592.303853,888.247130,888.247130,-76915.987999
12592.306387,2664.741391,-4885.359217,-79673.931792
12592.308921,-5033.400406,148.041188,-75843.454302
12592.311455,-4589.276840,-1332.370696,-77682.083497
12592.313988,12139.377449,-888.247130,-80286.808190
12592.316522,296.082377,-3997.112087,-76609.549800
12592.319056,-1924.535449,296.082377,-75537.016103
12592.321589,14211.954086,148.041188,-78601.398095
12592.324123,6365.771101,-2664.741391,-77835.302597
12592.326657,4441.235652,592.164754,-79673.931792
12592.329191,7846.182985,-740.205942,-77835.302597
12592.331724,3849.070898,-1332.370696,-77528.864398
12592.334258,-3552.988522,-1776.494261,-77835.302597
12592.336792,7254.018232,296.082377,-77069.207099
12592.339326,2220.617826,-3552.988522,-76149.892501
12592.341859,-4293.194464,-2072.576638,-77222.426198
12592.344393,-4293.194464,3552.988522,-77835.302597
12592.346927,1480.411884,-3108.864956,-77835.302597
12592.349461,-7698.141797,-2812.782580,-75843.454302
12592.351994,1628.453072,1480.411884,-78601.398095
12592.354538,3256.906145,-148.041188,-79520.712692
12592.357081,-1332.370696,-2368.659014,-78141.740796
12592.359624,-4441.235652,-740.205942,-78754.617194
12592.362167,-1332.370696,-1332.370696,-79367.493593
12592.364711,-11103.089130,-2516.700203,-77682.083497
12592.367254,-10214.842000,1184.329507,-77988.521696
12592.369797,1924.535449,-2368.659014,-78907.836294
12592.372340,-1628.453072,-592.164754,-78141.740796
12592.374883,888.247130,-1332.370696,-77528.864398
12592.377427,444.123565,-1776.494261,-76609.549800
12592.379970,-296.082377,-2812.782580,-76456.330700
12592.382513,-11991.336260,-148.041188,-75537.016103
12592.385056,1924.535449,296.082377,-80286.808190
12592.387600,-888.247130,-1332.370696,-74770.920605
12592.390143,-2516.700203,-2072.576638,-76149.892501
12592.392686,2812.782580,0.000000,-78294.959896
12592.395229,1776.494261,-444.123565,-77988.521696
12592.397772,-12287.418637,-2960.823768,-76609.549800
12592.400316,-7698.141797,2072.576638,-77835.302597
12592.402859,-3997.112087,-4441.235652,-80133.589091
12592.405402,-11843.295072,1628.453072,-74924.139704
12592.407945,-5477.523971,-888.247130,-77069.207099
12592.410489,1628.453072,-1480.411884,-78754.617194
12592.413032,-7846.182985,-3849.070898,-78907.836294
12592.415575,-3849.070898,2220.617826,-78448.178995
12592.418118,-2072.576638,-2664.741391,-77222.426198
12592.420661,-592.164754,-296.082377,-78601.398095
12592.423205,-6957.935855,-592.164754,-78141.740796
12592.425748,15692.365970,888.247130,-77375.645298
12592.428291,6957.935855,-4145.153275,-77988.521696
12592.430834,-2516.700203,592.164754,-78601.398095
12592.433378,-296.082377,1184.329507,-78754.617194
12592.435921,-2516.700203,-4293.194464,-76303.111601
12592.438464,-4293.194464,-592.164754,-77222.426198
12592.441007,12287.418637,296.082377,-79520.712692
12592.443550,15840.407159,-2516.700203,-77375.645298
12592.446094,7698.141797,-1480.411884,-78448.178995
12592.448637,5773.606348,1036.288319,-77222.426198
12592.451180,0.000000,-3256.906145,-77222.426198
12592.453723,-3256.906145,-1036.288319,-75690.235202
12592.456276,-2960.823768,592.164754,-79673.931792
12592.458827,5773.606348,-2072.576638,-78141.740796
12592.461378,5477.523971,-1628.453072,-75383.797003
12592.463929,-1628.453072,-1184.329507,-75690.235202
12592.466480,4293.194464,-1776.494261,-75383.797003
12592.469031,-444.123565,-2812.782580,-78448.178995
12592.471582,-5921.647536,444.123565,-78448.178995
12592.474133,12583.501014,-1776.494261,-80133.589091
12592.476684,1628.453072,-2220.617826,-75843.454302
12592.479235,3404.947333,-740.205942,-78754.617194
12592.481786,12435.459826,-1480.411884,-79367.493593
12592.484337,2960.823768,-1776.494261,-77988.521696
12592.486888,4293.194464,148.041188,-77835.302597
12592.489439,7698.141797,2368.659014,-77835.302597
12592.491990,5477.523971,-4737.318029,-77222.426198
12592.494541,-1332.370696,-1776.494261,-76762.768900
12592.497092,2664.741391,-1628.453072,-79367.493593
12592.499643,-2960.823768,-1184.329507,-76609.549800
12592.502194,-7698.141797,444.123565,-77069.207099
12592.504745,-444.123565,-1036.288319,-77528.864398
12592.507296,1184.329507,-2368.659014,-77069.207099
12592.509847,-4737.318029,-296.082377,-77222.426198
12592.512398,-740.205942,1480.411884,-76456.330700
12592.514949,3701.029710,-740.205942,-79673.931792
12592.517500,-8882.471304,-2960.823768,-77375.645298
12592.520051,-4293.194464,1036.288319,-77069.207099
12592.522602,-3108.864956,-3256.906145,-77528.864398
12592.525153,-10066.800811,-148.041188,-77682.083497
12592.527704,-6809.894666,148.041188,-79061.055394
12592.530255,2368.659014,-2072.576638,-78601.398095
12592.532806,-148.041188,-2072.576638,-77375.645298
12592.535357,-3701.029710,1480.411884,-76915.987999
12592.537908,-296.082377,-1628.453072,-79673.931792
12592.540459,-1776.494261,-1184.329507,-79367.493593
12592.543010,-5625.565159,0.000000,-77528.864398
12592.545561,5181.441594,740.205942,-75843.454302
12592.548112,3701.029710,-2960.823768,-77988.521696
12592.550663,-5625.565159,-1332.370696,-78141.740796
12592.553214,2960.823768,1924.535449,-79673.931792
12592.555765,-8586.388927,-2072.576638,-79061.055394
12592.558320,-12435.459826,-2812.782580,-77528.864398
12592.560876,-7698.141797,1480.411884,-77375.645298
12592.563431,-2220.617826,-3108.864956,-74158.044206
12592.565987,-11399.171507,-2812.782580,-75996.673402
12592.568542,-740.205942,1480.411884,-78294.959896
12592.571098,-2516.700203,-3552.988522,-79061.055394
12592.573653,-7105.977043,-1036.288319,-75996.673402
12592.576209,-888.247130,888.247130,-76149.892501
12592.578765,4441.235652,592.164754,-78294.959896
12592.581320,-592.164754,-3552.988522,-78294.959896
12592.583876,6957.935855,-296.082377,-77682.083497
12592.586431,9178.553681,1036.288319,-78907.836294
12592.588987,-3997.112087,-1776.494261,-78448.178995
12592.591542,-7846.182985,-1036.288319,-79980.369991
12592.594098,1628.453072,-148.041188,-78907.836294
12592.596653,296.082377,-2368.659014,-76762.768900
12592.599209,6365.771101,-148.041188,-78448.178995
12592.601764,17024.736666,2220.617826,-79061.055394
12592.604320,7846.182985,-5329.482782,-77682.083497
12592.606875,-5477.523971,888.247130,-76303.111601
12592.609431,-1628.453072,-888.247130,-76456.330700
12592.611986,10807.006753,-3256.906145,-77528.864398
12592.614542,2368.659014,-2516.700203,-78294.959896
12592.617097,7846.182985,0.000000,-78448.178995
12592.619653,9622.677246,-2516.700203,-76456.330700
12592.622208,-6957.935855,-5033.400406,-74770.920605
12592.624764,-6069.688724,-148.041188,-76762.768900
12592.627319,9918.759623,-148.041188,-79673.931792
12592.629875,-3404.947333,-592.164754,-76915.987999
12592.632430,3849.070898,-1036.288319,-80286.808190
12592.634986,12879.583391,-1480.411884,-75843.454302
12592.637541,3849.070898,-2368.659014,-76915.987999
12592.640097,7550.100608,2812.782580,-79980.369991
12592.642652,8882.471304,-888.247130,-78601.398095
12592.645208,1628.453072,-740.205942,-76915.987999
12592.647763,2516.700203,1924.535449,-77835.302597
12592.650319,8734.430116,-2368.659014,-79827.150892
12592.652874,-3108.864956,-1332.370696,-76609.549800
12592.655430,-8882.471304,-2368.659014,-76303.111601
12592.657985,148.041188,3849.070898,-77375.645298
12592.660545,-1776.494261,-4145.153275,-78141.740796
12592.663104,-7402.059420,-1480.411884,-78294.959896
12592.665663,3849.070898,1776.494261,-78294.959896
12592.668223,-1184.329507,-3108.864956,-76762.768900
12592.670782,-5181.441594,-2220.617826,-76609.549800
12592.673342,-13027.624579,-1184.329507,-77988.521696
12592.675901,592.164754,740.205942,-76762.768900
12592.678460,-8438.347739,-3108.864956,-78141.740796
12592.681020,-9918.759623,444.123565,-78448.178995
12592.683579,0.000000,-740.205942,-79673.931792
12592.686139,-888.247130,-1332.370696,-76303.111601
12592.688698,3552.988522,-2812.782580,-76609.549800
12592.691257,4885.359217,296.082377,-78294.959896
12592.693817,-4885.359217,-3256.906145,-77528.864398
12592.696376,-2812.782580,-1036.288319,-77988.521696
12592.698936,-2960.823768,3404.947333,-80440.027290
12592.701495,3552.988522,-2072.576638,-75230.577904
12592.704055,-3256.906145,-2812.782580,-76609.549800
12592.706614,2812.782580,1332.370696,-76609.549800
12592.709173,-3849.070898,-592.164754,-79214.274493
12592.711733,-13471.748144,-1184.329507,-77222.426198
12592.714292,-9030.512492,1332.370696,-75690.235202
12592.716852,-1480.411884,-444.123565,-79367.493593
12592.719411,-5181.441594,-1628.453072,-76149.892501
12592.721970,-5625.565159,296.082377,-78141.740796
12592.724530,-296.082377,-148.041188,-79520.712692
12592.727089,-5773.606348,-1776.494261,-78448.178995
12592.729649,-5329.482782,-592.164754,-77375.645298
12592.732208,4145.153275,1184.329507,-77835.302597
12592.734767,740.205942,-4589.276840,-77069.207099
12592.737327,9474.636058,-296.082377,-78601.398095
12592.739886,7550.100608,148.041188,-78448.178995
12592.742446,-5033.400406,-888.247130,-75843.454302
12592.745005,-8734.430116,-3404.947333,-77682.083497
12592.747564,296.082377,888.247130,-77375.645298
12592.750124,10214.842000,-4737.318029,-77528.864398
12592.752683,9178.553681,740.205942,-76762.768900
12592.755243,16136.489536,-296.082377,-78448.178995
12592.757802,6069.688724,-2220.617826,-77835.302597
12592.760362,-8290.306550,-1480.411884,-75690.235202
12592.762924,4293.194464,148.041188,-77222.426198
12592.765486,3849.070898,740.205942,-79673.931792
12592.768049,4589.276840,-2664.741391,-78907.836294
12592.770611,4145.153275,-592.164754,-75996.673402
12592.773174,6513.812290,-3404.947333,-77375.645298
12592.775736,-6513.812290,-592.164754,-78907.836294
12592.778299,-2220.617826,-444.123565,-78448.178995
12592.780861,11843.295072,-148.041188,-78294.959896
12592.783423,5625.565159,-2220.617826,-78294.959896
12592.785986,4293.194464,-1036.288319,-77222.426198
12592.788548,10214.842000,-1184.329507,-79214.274493
12592.791111,7550.100608,-2516.700203,-77835.302597
12592.793673,-2220.617826,1924.535449,-77528.864398
12592.796236,13619.789333,-1332.370696,-79520.712692
12592.798798,5625.565159,-1480.411884,-76149.892501
12592.801360,1332.370696,-3552.988522,-77069.207099
12592.803923,2960.823768,1184.329507,-77988.521696
12592.806485,296.082377,-4145.153275,-78448.178995
12592.809048,-7994.224174,592.164754,-76149.892501
12592.811610,1776.494261,-1628.453072,-77682.083497
12592.814173,0.000000,-3849.070898,-76762.768900
12592.816735,-4293.194464,-888.247130,-77528.864398
12592.819297,296.082377,1924.535449,-78141.740796
12592.821860,2664.741391,-1332.370696,-77528.864398
12592.824422,-10066.800811,-3552.988522,-76915.987999
12592.826985,-6957.935855,1184.329507,-77375.645298
12592.829547,-2072.576638,-1184.329507,-78294.959896
12592.832109,-4145.153275,-888.247130,-77835.302597
12592.834672,-7698.141797,-148.041188,-78907.836294
12592.837234,7402.059420,-296.082377,-78294.959896
12592.839797,-592.164754,-1628.453072,-77069.207099
12592.842359,-9326.594869,0.000000,-77682.083497
12592.844922,5625.565159,-740.205942,-79980.369991
12592.847484,-1332.370696,-2516.700203,-77222.426198
12592.850046,-3404.947333,-296.082377,-77988.521696
12592.852609,-1480.411884,-1036.288319,-75996.673402
12592.855171,2812.782580,-3552.988522,-77682.083497
12592.857734,-12435.459826,-1924.535449,-77835.302597
12592.860296,-2368.659014,0.000000,-79827.150892
12592.862859,-8438.347739,-1480.411884,-76456.330700
12592.865369,-14804.118840,-2516.700203,-76915.987999
12592.867879,-7105.977043,444.123565,-79673.931792
12592.870389,-1776.494261,-2664.741391,-75843.454302
12592.872899,-7846.182985,-1332.370696,-76456.330700
12592.875409,-4441.235652,-592.164754,-79673.931792
12592.877919,1480.411884,-296.082377,-77375.645298
12592.880429,-4441.235652,-740.205942,-77069.207099
12592.882940,-5329.482782,-296.082377,-78294.959896
12592.885450,14656.077652,-4293.194464,-78907.836294
12592.887960,6513.812290,-3404.947333,-77222.426198
12592.890470,1184.329507,2368.659014,-77222.426198
12592.892980,-1184.329507,-1332.370696,-78601.398095
12592.895490,-9326.594869,-3108.864956,-77069.207099
12592.898000,-1628.453072,-3256.906145,-78141.740796
12592.900510,13175.665768,4145.153275,-77528.864398
12592.903021,16432.571912,-3108.864956,-78294.959896
12592.905531,6365.771101,2072.576638,-75537.016103
12592.908041,4885.359217,-1628.453072,-78448.178995
12592.910551,-1480.411884,444.123565,-76149.892501
12592.913061,-13027.624579,-148.041188,-77835.302597
12592.915571,1924.535449,1628.453072,-78601.398095
12592.918081,12879.583391,-2960.823768,-77528.864398
12592.920591,-2072.576638,-3256.906145,-78141.740796
12592.923102,-148.041188,296.082377,-74004.825107
12592.925612,3997.112087,-3701.029710,-78907.836294
12592.928122,-2812.782580,-888.247130,-78601.398095
12592.930632,4737.318029,2960.823768,-81512.560987
12592.933142,11695.253884,-4145.153275,-76609.549800
12592.935652,2960.823768,-1776.494261,-75690.235202
12592.938162,7846.182985,-444.123565,-78141.740796
12592.940672,2960.823768,-1776.494261,-77988.521696
12592.943183,6365.771101,-2664.741391,-78294.959896
12592.945693,2812.782580,-148.041188,-78141.740796
12592.948203,13323.706956,-2220.617826,-77835.302597
12592.950713,0.000000,-1036.288319,-76456.330700
12592.953223,-12731.542202,-888.247130,-78294.959896
12592.955733,888.247130,1184.329507,-78601.398095
12592.958243,-1776.494261,-3552.988522,-77835.302597
12592.960754,-4145.153275,-1184.329507,-76303.111601
12592.963264,4441.235652,1924.535449,-78907.836294
12592.965788,3256.906145,-3997.112087,-76915.987999
12592.968312,-7402.059420,148.041188,-76303.111601
12592.970837,-1628.453072,-148.041188,-77835.302597
12592.973361,-7994.224174,-3108.864956,-78754.617194
12592.975886,-9326.594869,-2220.617826,-76303.111601
12592.978410,-5773.606348,1480.411884,-77988.521696
12592.980935,-740.205942,-1184.329507,-77222.426198
12592.983459,-7105.977043,-1480.411884,-76762.768900
12592.985984,-2960.823768,-1332.370696,-77835.302597
12592.988508,-5033.400406,740.205942,-76609.549800
12592.991032,592.164754,-2812.782580,-77835.302597
12592.993557,-7105.977043,1332.370696,-81052.903688
12592.996081,4885.359217,148.041188,-79367.493593
12592.998606,1332.370696,-1776.494261,-77375.645298
12593.001130,-12139.377449,-592.164754,-76609.549800
12593.003655,10362.883188,-2368.659014,-78294.959896
12593.006179,-13619.789333,-148.041188,-78448.178995
12593.008703,-10807.006753,-1776.494261,-75690.235202
12593.011228,-8290.306550,1628.453072,-78754.617194
12593.013752,-3552.988522,-3108.864956,-77682.083497
12593.016277,-10066.800811,-1184.329507,-77222.426198
12593.018801,1036.288319,-1480.411884,-77528.864398
12593.021326,-888.247130,-2072.576638,-77528.864398
12593.023850,-5625.565159,-148.041188,-76915.987999
12593.026374,296.082377,2960.823768,-78754.617194
12593.028899,888.247130,-3256.906145,-78294.959896
12593.031423,6365.771101,-4737.318029,-76456.330700
12593.033948,5477.523971,1480.411884,-78754.617194
12593.036472,1184.329507,-296.082377,-77835.302597
12593.038997,-9326.594869,-1480.411884,-77835.302597
12593.041521,-3701.029710,-1776.494261,-78754.617194
12593.044045,9474.636058,-2072.576638,-79061.055394
12593.046581,7994.224174,-296.082377,-78141.740796
12593.049117,16876.695478,888.247130,-78141.740796
12593.051652,7402.059420,1036.288319,-78907.836294
12593.054188,-740.205942,-3108.864956,-77528.864398
12593.056723,-15988.448347,3404.947333,-78448.178995
12593.059259,2960.823768,-740.205942,-78601.398095
12593.061795,10658.965565,-2072.576638,-77682.083497
12593.064330,888.247130,-1332.370696,-77069.207099
12593.066866,7254.018232,1628.453072,-79827.150892
12593.069401,-3849.070898,-3108.864956,-76303.111601
12593.071937,-3256.906145,0.000000,-76303.111601
12593.074472,14063.912898,888.247130,-78601.398095
12593.077008,8142.265362,-1480.411884,-77069.207099
12593.079544,6661.853478,-2960.823768,-78448.178995
12593.082079,8586.388927,888.247130,-77375.645298
12593.084615,7254.018232,-3849.070898,-75843.454302
12593.087150,6069.688724,-1184.329507,-77988.521696
12593.089686,4441.235652,-1332.370696,-77069.207099
12593.092221,10066.800811,-1184.329507,-78294.959896
12593.094757,-3849.070898,-740.205942,-77835.302597
12593.097293,-8734.430116,1036.288319,-77988.521696
12593.099828,-2516.700203,740.205942,-77682.083497
12593.102364,-1628.453072,-2072.576638,-78754.617194
12593.104899,-4885.359217,-1184.329507,-77222.426198
12593.107435,1036.288319,296.082377,-79367.493593
12593.109970,4885.359217,-296.082377,-79367.493593
12593.112506,-7550.100608,-1332.370696,-76303.111601
12593.115042,-5773.606348,740.205942,-77528.864398
12593.117577,-8882.471304,-3108.864956,-77528.864398
12593.120113,-11399.171507,-1628.453072,-77222.426198
12593.122648,-4293.194464,296.082377,-79520.712692
12593.125184,6661.853478,-1332.370696,-78294.959896
12593.127719,-5181.441594,-3256.906145,-79214.274493
12593.130255,-5477.523971,740.205942,-78448.178995
12593.132791,-1480.411884,-1036.288319,-77682.083497
12593.135326,-1776.494261,-1332.370696,-76915.987999
12593.137862,-296.082377,-148.041188,-80899.684589
12593.140397,5921.647536,-1332.370696,-78907.836294
12593.142933,-2960.823768,-1924.535449,-75077.358804
12593.145468,-9030.512492,-1924.535449,-76915.987999
12593.148013,-4441.235652,1924.535449,-77835.302597
12593.150557,-7698.141797,-3256.906145,-75843.454302
12593.153101,-13471.748144,-1628.453072,-77988.521696
12593.155645,-2220.617826,1036.288319,-75843.454302
12593.158189,-3701.029710,-3552.988522,-78448.178995
12593.160733,-8290.306550,-296.082377,-74617.701505
12593.163277,-888.247130,1184.329507,-77835.302597
12593.165821,740.205942,-2072.576638,-77835.302597
12593.168365,-7254.018232,-888.247130,-77835.302597
12593.170910,5625.565159,888.247130,-77682.083497
12593.173454,11547.212695,-4293.194464,-77375.645298
12593.175998,2368.659014,-1332.370696,-78294.959896
12593.178542,-4589.276840,4145.153275,-77682.083497
12593.181086,-592.164754,-4885.359217,-78294.959896
12593.183630,-8734.430116,-444.123565,-76609.549800
12593.186174,9178.553681,-1036.288319,-79520.712692
12593.188718,19393.395680,-740.205942,-79367.493593
12593.191262,13471.748144,-2664.741391,-77988.521696
12593.193807,-2220.617826,2220.617826,-77528.864398
12593.196351,1628.453072,-2072.576638,-77528.864398
12593.198895,-888.247130,-1628.453072,-77222.426198
12593.201439,-4737.318029,2368.659014,-79061.055394
12593.203983,16136.489536,-740.205942,-81206.122788
12593.206527,2664.741391,-3849.070898,-75843.454302
12593.209071,-5921.647536,-740.205942,-74617.701505
12593.211615,5477.523971,1776.494261,-75843.454302
12593.214159,3849.070898,-5033.400406,-78907.836294
12593.216704,4145.153275,1184.329507,-77375.645298
12593.219248,8882.471304,-1628.453072,-80286.808190
12593.221792,18653.189738,-2812.782580,-75383.797003
12593.224336,-3404.947333,-3404.947333,-75383.797003
12593.226880,9770.718434,2664.741391,-79367.493593
12593.229424,1480.411884,-2960.823768,-78294.959896
12593.231968,4145.153275,-2960.823768,-77375.645298
12593.234512,-3108.864956,444.123565,-79673.931792
12593.237056,5181.441594,-1628.453072,-78448.178995
12593.239601,-9918.759623,-1036.288319,-76915.987999
12593.242145,-6513.812290,-1480.411884,-78294.959896
12593.244689,-740.205942,-1628.453072,-78754.617194
12593.247233,-1776.494261,-740.205942,-78294.959896
12593.249784,-2516.700203,1776.494261,-79673.931792
12593.252336,3256.906145,-148.041188,-79673.931792
12593.254887,-6661.853478,-3701.029710,-76609.549800
12593.257438,-14656.077652,-2220.617826,-76609.549800
12593.259990,-7105.977043,740.205942,-78141.740796
12593.262541,-3997.112087,-1776.494261,-77988.521696
12593.265092,-2516.700203,-740.205942,-77069.207099
12593.267644,8882.471304,444.123565,-77682.083497
12593.270195,888.247130,-2516.700203,-77835.302597
12593.272746,-13619.789333,148.041188,-76609.549800
12593.275298,-1332.370696,444.123565,-75843.454302
12593.277849,2368.659014,-3552.988522,-77835.302597
12593.280400,-2960.823768,-1332.370696,-77682.083497
12593.282952,-148.041188,-592.164754,-77835.302597
12593.285503,2368.659014,-592.164754,-78294.959896
12593.288054,-13619.789333,-2664.741391,-78601.398095
12593.290606,-9622.677246,2220.617826,-78141.740796
12593.293157,-7254.018232,-3256.906145,-78601.398095
12593.295709,-9622.677246,296.082377,-78141.740796
12593.298260,-5181.441594,444.123565,-79827.150892
12593.300811,-1776.494261,-2812.782580,-78448.178995
12593.303363,-4441.235652,-4145.153275,-78294.959896
12593.305914,-4737.318029,1332.370696,-78141.740796
12593.308465,3997.112087,1776.494261,-79061.055394
12593.311017,3256.906145,-3404.947333,-79061.055394
12593.313568,5773.606348,-1036.288319,-77222.426198
12593.316119,9178.553681,-1332.370696,-78754.617194
12593.318671,-592.164754,-1776.494261,-77069.207099
12593.321222,-7698.141797,-148.041188,-77988.521696
12593.323773,3701.029710,444.123565,-76762.768900
12593.326325,13471.748144,-4737.318029,-77069.207099
12593.328876,9326.594869,-888.247130,-77835.302597
12593.331427,15396.283594,1036.288319,-78448.178995
12593.333979,1776.494261,-3701.029710,-76303.111601
12593.336530,-13471.748144,-1036.288319,-75230.577904
12593.339081,3552.988522,-592.164754,-76762.768900
12593.341633,5329.482782,0.000000,-78601.398095
12593.344184,6661.853478,-3552.988522,-80133.589091
12593.346735,3404.947333,-2368.659014,-78601.398095
12593.349287,3404.947333,-592.164754,-80593.246390
12593.351796,-3108.864956,592.164754,-76762.768900
12593.354306,-8438.347739,-2368.659014,-78294.959896
12593.356815,20725.766376,-592.164754,-77682.083497
12593.359324,3997.112087,-2072.576638,-79520.712692
12593.361834,14211.954086,-592.164754,-79520.712692
12593.364343,11547.212695,-1480.411884,-76915.987999
12593.366853,4737.318029,-2368.659014,-76609.549800
12593.369362,592.164754,-740.205942,-77528.864398
12593.371872,8438.347739,296.082377,-76762.768900
12593.374381,2072.576638,-2072.576638,-78448.178995
12593.376890,-10362.883188,592.164754,-76915.987999
12593.379400,592.164754,148.041188,-76762.768900
12593.381909,-3701.029710,-3404.947333,-76762.768900
12593.384419,-6809.894666,-1184.329507,-75383.797003
12593.386928,2516.700203,2516.700203,-79673.931792
12593.389437,888.247130,-3552.988522,-77835.302597
12593.391947,-5773.606348,-740.205942,-77222.426198
12593.394456,-7550.100608,444.123565,-76915.987999
12593.396966,-7402.059420,-3256.906145,-77528.864398
12593.399475,-12731.542202,-3404.947333,-78141.740796
12593.401984,-3256.906145,2072.576638,-79214.274493
12593.404494,-2664.741391,-2516.700203,-79673.931792
12593.407003,-1776.494261,-1776.494261,-75843.454302
12593.409513,-3404.947333,-740.205942,-77835.302597
12593.412022,-2664.741391,-2220.617826,-76303.111601
12593.414532,148.041188,-3108.864956,-79061.055394
12593.417041,-2664.741391,592.164754,-79367.493593
12593.419550,4589.276840,1628.453072,-77835.302597
12593.422060,-6217.729913,-3552.988522,-76456.330700
12593.424569,-8586.388927,592.164754,-74924.139704
12593.427079,-3997.112087,-1480.411884,-79520.712692
12593.429588,-13323.706956,-2220.617826,-78294.959896
12593.432097,-7550.100608,0.000000,-76915.987999
12593.434607,1332.370696,1776.494261,-78448.178995
12593.437116,296.082377,-2072.576638,-77682.083497
12593.439626,-9770.718434,-1036.288319,-77222.426198
12593.442135,888.247130,1184.329507,-77988.521696
12593.444644,2072.576638,-1480.411884,-78294.959896
12593.447154,-1332.370696,-1332.370696,-77375.645298
12593.449663,11547.212695,-2072.576638,-78754.617194
12593.452186,6661.853478,-1332.370696,-76456.330700
12593.454710,-8142.265362,-1184.329507,-77375.645298
12593.457234,-5773.606348,1628.453072,-76915.987999
12593.459758,3552.988522,-4293.194464,-79214.274493
12593.462283,9326.594869,-1924.535449,-78141.740796
12593.464807,11399.171507,1332.370696,-79673.931792
12593.467331,19097.313304,-3256.906145,-79367.493593
12593.469856,-296.082377,-1480.411884,-75077.358804
12593.472380,2664.741391,-592.164754,-77069.207099
12593.474904,-2220.617826,-1184.329507,-79367.493593
12593.477429,-1628.453072,-2664.741391,-77375.645298
12593.479953,2664.741391,-740.205942,-79673.931792
12593.482477,5625.565159,1924.535449,-77988.521696
12593.485001,-4145.153275,-3108.864956,-73391.948708
12593.487526,-5329.482782,-444.123565,-76303.111601
12593.490050,8882.471304,2220.617826,-80133.589091
12593.492574,7402.059420,-592.164754,-80440.027290
12593.495099,9326.594869,-296.082377,-76456.330700
12593.497623,14804.118840,-148.041188,-75996.673402
12593.500147,9474.636058,-3997.112087,-76456.330700
12593.502672,-3552.988522,-2960.823768,-79214.274493
12593.505196,2220.617826,0.000000,-76762.768900
12593.507720,6217.729913,-296.082377,-77375.645298
12593.510245,-3552.988522,-1628.453072,-79061.055394
12593.512769,-7105.977043,-296.082377,-77222.426198
12593.515293,296.082377,-1628.453072,-78448.178995
12593.517817,-4293.194464,-1924.535449,-77682.083497
12593.520342,-6661.853478,-592.164754,-76915.987999
12593.522866,5329.482782,1924.535449,-78907.836294
12593.525390,-1924.535449,-2960.823768,-77375.645298
12593.527915,-10066.800811,-1924.535449,-76609.549800
12593.530439,-9030.512492,-296.082377,-78141.740796
12593.532963,-7698.141797,-1776.494261,-76915.987999
12593.535488,-10214.842000,-2960.823768,-77988.521696
12593.538012,-3849.070898,4441.235652,-77835.302597
12593.540536,6069.688724,-5921.647536,-77682.083497
12593.543061,-8586.388927,-148.041188,-75690.235202
12593.545585,-2812.782580,-296.082377,-78448.178995
12593.548109,1036.288319,-2516.700203,-77835.302597
12593.550633,1776.494261,-1184.329507,-79980.369991
12593.553170,-2664.741391,1332.370696,-78294.959896
12593.555707,444.123565,-2664.741391,-78448.178995
12593.558244,-8734.430116,-1628.453072,-74924.139704
12593.560781,-11251.130318,592.164754,-77069.207099
12593.563318,-6957.935855,-2516.700203,-80746.465489
12593.565855,-9770.718434,-2812.782580,-78448.178995
12593.568392,-5625.565159,1036.288319,-77222.426198
12593.570929,740.205942,2072.576638,-78448.178995
12593.573465,-4293.194464,-4145.153275,-77835.302597
12593.576002,-4145.153275,2072.576638,-75383.797003
12593.578539,-592.164754,-148.041188,-78294.959896
12593.581076,8142.265362,-740.205942,-78448.178995
12593.583613,3701.029710,-1924.535449,-79061.055394
12593.586150,10066.800811,1480.411884,-78754.617194
12593.588687,-4441.235652,-2812.782580,-78141.740796
12593.591224,-8882.471304,1332.370696,-77222.426198
12593.593761,2812.782580,740.205942,-79061.055394
12593.596297,10807.006753,-3108.864956,-78907.836294
12593.598834,10362.883188,-1628.453072,-77528.864398
12593.601371,14063.912898,-1776.494261,-77528.864398
12593.603908,5921.647536,-1628.453072,-76762.768900
12593.606445,-7994.224174,-3108.864956,-77375.645298
12593.608982,-1628.453072,2960.823768,-77988.521696
12593.611519,7994.224174,-4145.153275,-78754.617194
12593.614056,444.123565,-1628.453072,-80286.808190
12593.616593,-3701.029710,-888.247130,-75690.235202
12593.619129,9622.677246,-2220.617826,-76456.330700
12593.621666,-3997.112087,-1924.535449,-78754.617194
12593.624203,5773.606348,1480.411884,-80133.589091
12593.626740,16728.654289,-740.205942,-80593.246390
12593.629277,12879.583391,-1628.453072,-76303.111601
12593.631814,2220.617826,-444.123565,-75996.673402
12593.634351,11695.253884,-2960.823768,-78754.617194
12593.636888,-740.205942,-3701.029710,-75537.016103
12593.639425,-2664.741391,740.205942,-75996.673402
12593.641961,592.164754,-740.205942,-79673.931792
12593.644498,1036.288319,-148.041188,-76915.987999
12593.647035,-4885.359217,-2664.741391,-75690.235202
12593.649572,-1628.453072,0.000000,-76762.768900
12593.652109,-3256.906145,-1776.494261,-77682.083497
12593.654655,-6217.729913,148.041188,-78141.740796
12593.657201,1776.494261,888.247130,-77375.645298
12593.659747,2368.659014,-2516.700203,-77988.521696
12593.662294,-14508.036463,-3256.906145,-77222.426198
12593.664840,-5329.482782,3108.864956,-77682.083497
12593.667386,-6069.688724,-3404.947333,-79367.493593
12593.669932,-3997.112087,-2664.741391,-78907.836294
12593.672478,1332.370696,888.247130,-78141.740796
12593.675024,1332.370696,-5329.482782,-78141.740796
12593.677570,-3404.947333,-740.205942,-76762.768900
12593.680117,-7994.224174,-1036.288319,-76762.768900
12593.682663,-1332.370696,296.082377,-76456.330700
12593.685209,9326.594869,-2812.782580,-79367.493593
12593.687755,-8142.265362,-1184.329507,-76915.987999
12593.690301,6513.812290,740.205942,-79214.274493
12593.692847,-14359.995275,-2664.741391,-77375.645298
12593.695393,-15988.448347,296.082377,-76303.111601
12593.697939,-7105.977043,-592.164754,-76609.549800
12593.700486,-6365.771101,-3404.947333,-78907.836294
12593.703032,-4145.153275,1628.453072,-78754.617194
12593.705578,3108.864956,1776.494261,-77375.645298
12593.708124,1332.370696,-2220.617826,-79367.493593
12593.710670,-6661.853478,1036.288319,-75537.016103
12593.713216,6069.688724,-1776.494261,-78448.178995
12593.715762,10658.965565,-1628.453072,-76762.768900
12593.718309,2516.700203,-444.123565,-78754.617194
12593.720855,1924.535449,1628.453072,-77682.083497
12593.723401,-4145.153275,-4145.153275,-76915.987999
12593.725947,-3552.988522,-1036.288319,-76303.111601
12593.728493,5181.441594,1036.288319,-78601.398095
12593.731039,16876.695478,-2072.576638,-77682.083497
12593.733585,7994.224174,-2960.823768,-77222.426198
12593.736132,-592.164754,1332.370696,-78141.740796
12593.738678,2220.617826,-3552.988522,-77835.302597
12593.741224,-6513.812290,0.000000,-76149.892501
12593.743770,4145.153275,1036.288319,-77988.521696
12593.746316,7698.141797,-2812.782580,-81206.122788
12593.748862,-1184.329507,-3256.906145,-77375.645298
12593.751408,-9178.553681,592.164754,-76915.987999
12593.753955,-2072.576638,592.164754,-78754.617194
12593.756508,10807.006753,-2516.700203,-77222.426198
12593.759062,6661.853478,296.082377,-79214.274493
12593.761616,21465.972318,148.041188,-79673.931792
12593.764170,7254.018232,-2368.659014,-78141.740796
12593.766723,3701.029710,-444.123565,-75537.016103
12593.769277,6217.729913,-1924.535449,-78601.398095
12593.771831,-148.041188,-2516.700203,-76915.987999
12593.774385,-6217.729913,-1924.535449,-78448.178995
12593.776938,1480.411884,1480.411884,-78294.959896
12593.779492,444.123565,-2516.700203,-76915.987999
12593.782046,-6957.935855,-1480.411884,-76609.549800
12593.784600,-888.247130,2072.576638,-76609.549800
12593.787153,-296.082377,-2516.700203,-78448.178995
12593.789707,-7402.059420,-444.123565,-76456.330700
12593.792261,-2220.617826,0.000000,-77375.645298
12593.794815,-7254.018232,-2368.659014,-79673.931792
12593.797369,-9622.677246,-2368.659014,-77988.521696
12593.799922,-9622.677246,148.041188,-77069.207099
12593.802476,-4589.276840,-2220.617826,-78754.617194
12593.805030,-2812.782580,-2072.576638,-77835.302597
12593.807584,444.123565,1184.329507,-77835.302597
12593.810137,-1332.370696,-3404.947333,-78754.617194
12593.812691,-1480.411884,1036.288319,-77528.864398
12593.815245,-6217.729913,444.123565,-77528.864398
12593.817799,1036.288319,296.082377,-74770.920605
12593.820352,-2368.659014,-3997.112087,-77528.864398
12593.822906,-10955.047942,0.000000,-74924.139704
12593.825460,-14211.954086,-888.247130,-80746.465489
12593.828014,-8142.265362,-1628.453072,-77528.864398
12593.830568,-13915.871710,-888.247130,-77988.521696
12593.833121,5181.441594,444.123565,-78601.398095
12593.835675,-3256.906145,-4441.235652,-77835.302597
12593.838229,-3701.029710,2072.576638,-77682.083497
12593.840783,-2960.823768,-740.205942,-78601.398095
12593.843336,11399.171507,-2812.782580,-78754.617194
12593.845890,2220.617826,-2664.741391,-77375.645298
12593.848444,7846.182985,1184.329507,-77988.521696
12593.850998,1628.453072,-2664.741391,-76303.111601
12593.853551,-8290.306550,-1480.411884,-76303.111601
12593.856105,0.000000,0.000000,-77682.083497
12593.858665,11991.336260,-2664.741391,-77682.083497
12593.861225,5773.606348,-2072.576638,-78907.836294
12593.863785,9178.553681,0.000000,-78141.740796
12593.866345,11103.089130,-1036.288319,-78448.178995
12593.868905,-7402.059420,-1480.411884,-77069.207099
12593.871465,-1332.370696,1628.453072,-79367.493593
12593.874025,7846.182985,-1480.411884,-79520.712692
12593.876585,3997.112087,-1776.494261,-77222.426198
12593.879145,-5181.441594,-740.205942,-78448.178995
12593.881705,8290.306550,-3701.029710,-77835.302597
12593.884265,-2516.700203,-2072.576638,-75996.673402
12593.886825,3108.864956,-740.205942,-77375.645298
12593.889385,15692.365970,-1036.288319,-77222.426198
12593.891945,16136.489536,-1332.370696,-77682.083497
12593.894505,5329.482782,-1628.453072,-78448.178995
12593.897065,8142.265362,-592.164754,-77375.645298
12593.899625,148.041188,-3404.947333,-76609.549800
12593.902185,-7698.141797,296.082377,-75996.673402
12593.904745,-1776.494261,1924.535449,-79520.712692
12593.907305,4737.318029,-4145.153275,-78294.959896
12593.909865,-7846.182985,-2220.617826,-77069.207099
12593.912425,-1184.329507,296.082377,-77682.083497
12593.914985,148.041188,1036.288319,-79673.931792
12593.917545,-2220.617826,-2072.576638,-77682.083497
12593.920105,-6957.935855,740.205942,-78141.740796
12593.922665,-2516.700203,444.123565,-79061.055394
12593.925224,-5477.523971,-1924.535449,-77375.645298
12593.927784,-10955.047942,-740.205942,-77528.864398
12593.930344,-3701.029710,-1184.329507,-77682.083497
12593.932904,1924.535449,-1480.411884,-77222.426198
12593.935464,-1184.329507,-1480.411884,-76762.768900
12593.938024,-2368.659014,592.164754,-79061.055394
12593.940584,-592.164754,-1776.494261,-77069.207099
12593.943144,-3849.070898,-1480.411884,-75996.673402
12593.945704,-3997.112087,296.082377,-77835.302597
12593.948264,3997.112087,-1776.494261,-76915.987999
12593.950824,-14063.912898,-2368.659014,-77069.207099
12593.953384,-16284.530724,-740.205942,-77069.207099
12593.955944,-5773.606348,-888.247130,-79367.493593
12593.958504,-10658.965565,-1332.370696,-77988.521696
12593.961068,-3404.947333,0.000000,-78294.959896
12593.963632,4885.359217,-1924.535449,-77835.302597
12593.966195,-2960.823768,-2516.700203,-77835.302597
12593.968759,-2072.576638,1628.453072,-77835.302597
12593.971323,8734.430116,-2516.700203,-78141.740796
12593.973886,6365.771101,-3849.070898,-77835.302597
12593.976450,0.000000,1776.494261,-76915.987999
12593.979014,2072.576638,1628.453072,-77988.521696
12593.981578,-444.123565,-5033.400406,-76149.892501
12593.984141,-5033.400406,148.041188,-77222.426198
12593.986705,9918.759623,1628.453072,-78448.178995
12593.989269,10955.047942,-2220.617826,-77682.083497
12593.991832,10214.842000,-296.082377,-76609.549800
12593.994396,5921.647536,0.000000,-78294.959896
12593.996960,-888.247130,-2812.782580,-79061.055394
12593.999524,-2516.700203,-1924.535449,-77375.645298
12594.002087,7994.224174,1628.453072,-80440.027290
12594.004651,740.205942,-3108.864956,-80133.589091
12594.007215,7846.182985,-3552.988522,-75996.673402
12594.009778,-9770.718434,-1036.288319,-76609.549800
12594.012342,10510.924376,-4145.153275,-75383.797003
12594.014906,-3701.029710,-888.247130,-78141.740796
12594.017470,19097.313304,444.123565,-76915.987999
12594.020033,14211.954086,-2220.617826,-80286.808190
12594.022597,7698.141797,-148.041188,-77222.426198
12594.025161,-444.123565,-1924.535449,-78141.740796
12594.027724,3997.112087,0.000000,-77682.083497
12594.030288,-6365.771101,-2664.741391,-77069.207099
12594.032852,-4293.194464,3256.906145,-79367.493593
12594.035416,6513.812290,-4293.194464,-80286.808190
12594.037979,-5033.400406,-2220.617826,-78601.398095
12594.040543,-3108.864956,0.000000,-77528.864398
12594.043107,-1628.453072,-1036.288319,-79673.931792
12594.045670,-2368.659014,-444.123565,-75537.016103
12594.048234,-9030.512492,-1924.535449,-75537.016103
12594.050798,-2072.576638,1776.494261,-78141.740796
12594.053362,-4737.318029,-3849.070898,-77835.302597
12594.055925,-7254.018232,-148.041188,-75843.454302
12594.058489,-148.041188,-1184.329507,-78448.178995
12594.061053,-296.082377,-888.247130,-76762.768900
12594.063620,-9918.759623,-1036.288319,-76149.892501
12594.066186,0.000000,1628.453072,-77682.083497
12594.068753,5329.482782,-3997.112087,-78294.959896
12594.071320,-3552.988522,-296.082377,-76609.549800
12594.073887,1036.288319,1628.453072,-79214.274493
12594.076454,2516.700203,-1332.370696,-78294.959896
12594.079021,-15248.242405,-2368.659014,-77682.083497
12594.081588,-12139.377449,444.123565,-77069.207099
12594.084155,-10214.842000,-2664.741391,-76915.987999
12594.086721,-10362.883188,-3108.864956,-77682.083497
12594.089288,-4589.276840,1776.494261,-77222.426198
12594.091855,4589.276840,-1036.288319,-79367.493593
12594.094422,0.000000,-1480.411884,-77222.426198
12594.096989,-1924.535449,-888.247130,-77528.864398
12594.099556,13175.665768,-1628.453072,-77682.083497
12594.102123,5181.441594,-2368.659014,-79061.055394
12594.104690,-2812.782580,-444.123565,-76915.987999
12594.107256,2072.576638,2516.700203,-77835.302597
12594.109823,-2072.576638,-5033.400406,-76762.768900
12594.112390,0.000000,-740.205942,-75690.235202
12594.114957,12287.418637,1480.411884,-79520.712692
12594.117524,13471.748144,-1924.535449,-78448.178995
12594.120091,4145.153275,-2812.782580,-76762.768900
12594.122658,1184.329507,1036.288319,-76762.768900
12594.125225,-5181.441594,-1628.453072,-78294.959896
12594.127791,444.123565,-1776.494261,-76609.549800
12594.130358,7994.224174,1480.411884,-75843.454302
12594.132925,6809.894666,-3256.906145,-77069.207099
12594.135492,2812.782580,-4293.194464,-75383.797003
12594.138059,3701.029710,1628.453072,-78601.398095
12594.140626,8142.265362,-1924.535449,-79520.712692
12594.143193,10214.842000,444.123565,-76915.987999
12594.145760,14211.954086,740.205942,-75996.673402
12594.148326,17468.860231,-3256.906145,-78907.836294
12594.150893,-1332.370696,-3552.988522,-77835.302597
12594.153460,1036.288319,1332.370696,-78141.740796
12594.156027,-1332.370696,1332.370696,-79827.150892
12594.158594,-1776.494261,-1036.288319,-77835.302597
12594.161161,-3997.112087,-1628.453072,-75537.016103
12594.163728,3108.864956,-2072.576638,-79673.931792
12594.166296,-2368.659014,-1924.535449,-78601.398095
12594.168865,-10807.006753,1628.453072,-77988.521696
12594.171433,740.205942,-1924.535449,-78141.740796
12594.174001,-6217.729913,-2664.741391,-76149.892501
12594.176570,-8734.430116,-888.247130,-77222.426198
12594.179138,-3701.029710,1184.329507,-77069.207099
12594.181707,-4293.194464,-2664.741391,-77835.302597
12594.184275,-14063.912898,-2220.617826,-75996.673402
12594.186843,-1036.288319,888.247130,-76915.987999
12594.189412,888.247130,-888.247130,-76456.330700
12594.191980,-4441.235652,-148.041188,-77988.521696
12594.194549,148.041188,740.205942,-79980.369991
12594.197117,6069.688724,-888.247130,-76762.768900
12594.199685,-6957.935855,-1332.370696,-79520.712692
12594.202254,-9030.512492,740.205942,-77528.864398
12594.204822,-5625.565159,-1628.453072,-78754.617194
12594.207391,-14063.912898,-3552.988522,-78907.836294
12594.209959,-12287.418637,1332.370696,-78141.740796
12594.212527,-444.123565,-1184.329507,-78448.178995
12594.215096,-4441.235652,-3108.864956,-78601.398095
12594.217664,-3108.864956,-444.123565,-78448.178995
12594.220233,5477.523971,296.082377,-77528.864398
12594.222801,-444.123565,-3701.029710,-76456.330700
12594.225369,3108.864956,-1924.535449,-77222.426198
12594.227938,7994.224174,296.082377,-77988.521696
12594.230506,-2664.741391,-1480.411884,-75383.797003
12594.233074,-4885.359217,-1036.288319,-76456.330700
12594.235643,-148.041188,148.041188,-77222.426198
12594.238211,10066.800811,-2072.576638,-78141.740796
12594.240780,4885.359217,1036.288319,-76915.987999
12594.243348,15840.407159,148.041188,-79367.493593
12594.245916,8882.471304,-3552.988522,-78754.617194
12594.248485,-8142.265362,-2072.576638,-75383.797003
12594.251053,3849.070898,0.000000,-79214.274493
12594.253622,6513.812290,-2220.617826,-80286.808190
12594.256190,-148.041188,-1480.411884,-79520.712692
12594.258758,-1776.494261,-444.123565,-77069.207099
12594.261327,2812.782580,-3552.988522,-77222.426198
12594.263895,-1332.370696,-3404.947333,-76609.549800
12594.266464,9770.718434,3552.988522,-78294.959896
12594.269034,24722.878463,444.123565,-78448.178995
12594.271605,11695.253884,-888.247130,-77835.302597
12594.274176,6365.771101,-1036.288319,-77988.521696
12594.276747,3404.947333,-888.247130,-78448.178995
12594.279318,-3701.029710,-2664.741391,-77528.864398
12594.281888,-12731.542202,2960.823768,-76456.330700
12594.284459,7254.018232,-2664.741391,-79367.493593
12594.287030,-2960.823768,-1924.535449,-77988.521696
12594.289601,-2072.576638,888.247130,-78294.959896
12594.292172,-3552.988522,1628.453072,-78448.178995
12594.294742,-4293.194464,-1332.370696,-77988.521696
12594.297313,-10658.965565,-2960.823768,-76149.892501
12594.299884,-5477.523971,2220.617826,-77222.426198
12594.302455,-1332.370696,-3997.112087,-78141.740796
12594.305026,-10510.924376,740.205942,-77069.207099
12594.307596,-1628.453072,-1332.370696,-77835.302597
12594.310167,-3552.988522,-740.205942,-77222.426198
12594.312738,-5329.482782,-888.247130,-77835.302597
12594.315309,-4589.276840,3404.947333,-76456.330700
12594.317880,6957.935855,-3108.864956,-80746.465489
12594.320450,-3849.070898,-444.123565,-79520.712692
12594.323021,-1332.370696,-1332.370696,-76456.330700
12594.325592,296.082377,-2812.782580,-78141.740796
12594.328163,-14656.077652,-1332.370696,-73698.386908
12594.330734,-14656.077652,-2220.617826,-79827.150892
12594.333304,-9178.553681,888.247130,-78294.959896
12594.335875,-5181.441594,-2664.741391,-79061.055394
12594.338446,-5181.441594,2072.576638,-78448.178995
12594.341017,1184.329507,1628.453072,-78294.959896
12594.343588,1332.370696,-3552.988522,-77682.083497
12594.346158,3256.906145,-2516.700203,-76303.111601
12594.348729,9918.759623,444.123565,-77835.302597
12594.351300,7846.182985,-2368.659014,-80286.808190
12594.353872,-8734.430116,296.082377,-76762.768900
12594.356444,2664.741391,-1628.453072,-76762.768900
12594.359015,1480.411884,-2516.700203,-75843.454302
12594.361587,3849.070898,-2812.782580,-75843.454302
12594.364159,5773.606348,-444.123565,-78754.617194
12594.366730,11991.336260,888.247130,-78448.178995
12594.369302,-2368.659014,-1776.494261,-76609.549800
12594.371874,-2368.659014,444.123565,-77682.083497
12594.374445,4441.235652,-296.082377,-78754.617194
12594.377017,2072.576638,-1924.535449,-79980.369991
12594.379589,-6217.729913,444.123565,-78448.178995
12594.382160,9178.553681,-2812.782580,-78754.617194
12594.384732,888.247130,-3404.947333,-76762.768900
12594.387304,2516.700203,-740.205942,-77528.864398
12594.389875,15840.407159,148.041188,-76609.549800
12594.392447,15396.283594,-1036.288319,-79673.931792
12594.395019,7105.977043,-2220.617826,-76456.330700
12594.397590,9326.594869,-888.247130,-77375.645298
12594.400162,-1480.411884,-1776.494261,-76456.330700
12594.402734,-8882.471304,-296.082377,-77375.645298
12594.405305,-1332.370696,740.205942,-78448.178995
12594.407877,3849.070898,-3256.906145,-78754.617194
12594.410449,-4885.359217,-2664.741391,-76915.987999
12594.413020,-2220.617826,2664.741391,-77528.864398
12594.415592,-1776.494261,-2516.700203,-78294.959896
12594.418164,-7698.141797,1480.411884,-77069.207099
12594.420735,-7402.059420,-2368.659014,-77222.426198
12594.423307,-1480.411884,-592.164754,-78141.740796
12594.425879,-10362.883188,-2072.576638,-77988.521696
12594.428450,1332.370696,888.247130,-78141.740796
12594.431022,-888.247130,-1332.370696,-78754.617194
12594.433594,-1924.535449,-2072.576638,-76149.892501
12594.436165,-5181.441594,1776.494261,-77528.864398
12594.438737,-1036.288319,-1776.494261,-80593.246390
12594.441309,5181.441594,-1776.494261,-77682.083497
12594.443880,-9622.677246,740.205942,-78907.836294
12594.446452,2220.617826,-1332.370696,-78294.959896
12594.449024,-13767.830521,-1776.494261,-79061.055394
12594.451595,-15544.324782,-444.123565,-75383.797003
12594.454168,-9178.553681,148.041188,-77069.207099
12594.456740,-4737.318029,-2072.576638,-76762.768900
12594.459312,-4145.153275,-1036.288319,-76915.987999
12594.461884,-444.123565,1628.453072,-77375.645298
12594.464457,2960.823768,-2368.659014,-77682.083497
12594.467029,-3404.947333,-1480.411884,-76456.330700
12594.469601,10066.800811,740.205942,-77069.207099
12594.472174,4737.318029,-3108.864956,-78907.836294
12594.474746,-148.041188,-1480.411884,-77375.645298
12594.477318,-2812.782580,1036.288319,-77988.521696
12594.479890,10214.842000,-2220.617826,-77375.645298
12594.482463,5625.565159,-2664.741391,-78294.959896
12594.485035,7846.182985,1924.535449,-80593.246390
12594.487607,10955.047942,-3108.864956,-78754.617194
12594.490180,-2072.576638,-1776.494261,-76609.549800
12594.492752,-1036.288319,1036.288319,-75996.673402
12594.495324,3997.112087,-2220.617826,-79673.931792
12594.497896,4885.359217,-740.205942,-75843.454302
12594.500469,-1776.494261,-740.205942,-77528.864398
12594.503041,2812.782580,592.164754,-78141.740796
12594.505613,4441.235652,-2664.741391,-77528.864398
12594.508185,-3256.906145,148.041188,-77222.426198
12594.510758,18801.230927,2368.659014,-76303.111601
12594.513330,13619.789333,592.164754,-76915.987999
12594.515902,8734.430116,-1480.411884,-79520.712692
12594.518475,7550.100608,-2368.659014,-77375.645298
12594.521047,888.247130,-740.205942,-77835.302597
12594.523619,-13767.830521,-1036.288319,-78907.836294
12594.526191,-2960.823768,1036.288319,-77222.426198
12594.528764,2220.617826,-5181.441594,-78448.178995
12594.531336,-3701.029710,-2220.617826,-77375.645298
12594.533908,-1036.288319,1184.329507,-78907.836294
12594.536481,-1924.535449,-2960.823768,-77988.521696
12594.539053,-13175.665768,-1776.494261,-74924.139704
12594.541625,-4737.318029,-888.247130,-75537.016103
12594.544197,-1184.329507,-2368.659014,-78448.178995
12594.546770,-5329.482782,-296.082377,-78448.178995
12594.549342,-5033.400406,-2368.659014,-77375.645298
12594.551914,1628.453072,2516.700203,-77222.426198
12594.554487,-5181.441594,-2960.823768,-77528.864398
12594.557059,-2516.700203,-296.082377,-78601.398095
12594.559632,888.247130,148.041188,-77375.645298
12594.562205,2368.659014,-2960.823768,-78294.959896
12594.564777,-6365.771101,0.000000,-78907.836294
12594.567350,-3849.070898,1332.370696,-78448.178995
12594.569923,-9918.759623,-4145.153275,-77835.302597
12594.572495,-18209.066173,148.041188,-77835.302597
12594.575068,-7402.059420,-1480.411884,-76303.111601
12594.577641,-1776.494261,-2368.659014,-76762.768900
12594.580214,-3404.947333,-1332.370696,-77069.207099
12594.582786,2960.823768,3108.864956,-77375.645298
12594.585359,444.123565,-4737.318029,-77069.207099
12594.587932,3256.906145,-2812.782580,-78141.740796
12594.590504,3404.947333,1628.453072,-77222.426198
12594.593077,7254.018232,-2368.659014,-78141.740796
12594.595650,-4589.276840,-444.123565,-76915.987999
12594.598223,-1184.329507,0.000000,-78754.617194
12594.600795,9178.553681,-2664.741391,-76762.768900
12594.603368,5477.523971,-2960.823768,-77528.864398
12594.605941,12879.583391,-888.247130,-78601.398095
12594.608513,14211.954086,-1776.494261,-80440.027290
12594.611086,-4441.235652,-1924.535449,-75843.454302
12594.613659,-1036.288319,-296.082377,-77528.864398
12594.616232,4293.194464,-296.082377,-81052.903688
12594.618804,3997.112087,-1184.329507,-77988.521696
12594.621377,-6069.688724,-740.205942,-75996.673402
12594.623950,3997.112087,-148.041188,-76456.330700
12594.626522,2812.782580,-4441.235652,-78907.836294
12594.629095,2812.782580,2368.659014,-78294.959896
12594.631668,21169.889941,-1036.288319,-78754.617194
12594.634240,12583.501014,-4441.235652,-77069.207099
12594.636813,6069.688724,-3849.070898,-77528.864398
12594.639386,-592.164754,1036.288319,-76303.111601
12594.641959,-2516.700203,-2812.782580,-77835.302597
12594.644531,-12435.459826,888.247130,-76456.330700
12594.647104,3404.947333,-592.164754,-77528.864398
12594.649677,296.082377,-4589.276840,-77835.302597
12594.652249,-3256.906145,1036.288319,-75383.797003
12594.654822,-4145.153275,888.247130,-78907.836294
12594.657395,-1036.288319,444.123565,-78907.836294
12594.659929,-10658.965565,-3108.864956,-77528.864398
12594.662463,-7105.977043,2220.617826,-77069.207099
12594.664998,-444.123565,-1332.370696,-78601.398095
12594.667532,-5329.482782,-1628.453072,-77682.083497
12594.670066,-4293.194464,0.000000,-78294.959896
12594.672601,7550.100608,-444.123565,-79214.274493
12594.675135,-4737.318029,-2368.659014,-79061.055394
12594.677669,444.123565,1480.411884,-77682.083497
12594.680203,296.082377,1776.494261,-80593.246390
12594.682738,-1776.494261,-2812.782580,-75843.454302
12594.685272,-12879.583391,-444.123565,-76762.768900
12594.687806,-6809.894666,-888.247130,-75843.454302
12594.690340,-17320.819043,-888.247130,-78601.398095
12594.692875,-12879.583391,-740.205942,-78141.740796
12594.695409,-2664.741391,888.247130,-76915.987999
12594.697943,3108.864956,-3108.864956,-76456.330700
12594.700478,-5921.647536,296.082377,-76915.987999
12594.703012,4441.235652,-296.082377,-76456.330700
12594.705546,10066.800811,-4885.359217,-78448.178995
12594.708080,2516.700203,-888.247130,-77682.083497
12594.710615,-592.164754,1480.411884,-79214.274493
12594.713149,4441.235652,-2664.741391,-77682.083497
12594.715683,-5477.523971,-4885.359217,-77835.302597
12594.718217,7846.182985,2368.659014,-77528.864398
12594.720752,8586.388927,-5033.400406,-77835.302597
12594.723286,14952.160028,-2664.741391,-77835.302597
12594.725820,7846.182985,444.123565,-77835.302597
12594.728355,6365.771101,1628.453072,-78294.959896
12594.730889,-9178.553681,-1924.535449,-76915.987999
12594.733423,3849.070898,-740.205942,-76609.549800
12594.735957,7254.018232,-740.205942,-76915.987999
12594.738492,-1924.535449,-1036.288319,-78754.617194
12594.741026,-4145.153275,2072.576638,-78448.178995
12594.743560,10510.924376,-1776.494261,-76456.330700
12594.746095,16728.654289,-3701.029710,-79673.931792
12594.748629,9918.759623,740.205942,-74617.701505
12594.751163,8882.471304,-2072.576638,-77988.521696
12594.753697,4737.318029,-1628.453072,-78141.740796
12594.756232,-3552.988522,-4293.194464,-77988.521696
12594.758766,-11547.212695,2960.823768,-78294.959896
12594.761308,2812.782580,-2812.782580,-79827.150892
12594.763850,-4737.318029,-2072.576638,-77835.302597
12594.766393,-296.082377,-1184.329507,-78141.740796
12594.768935,-3256.906145,740.205942,-77528.864398
12594.771477,-2072.576638,296.082377,-76609.549800
12594.774019,-14359.995275,-3849.070898,-76762.768900
12594.776561,-2960.823768,1628.453072,-75996.673402
12594.779104,-5921.647536,-3552.988522,-76303.111601
12594.781646,-6365.771101,0.000000,-76609.549800
12594.784188,1332.370696,-888.247130,-78907.836294
12594.786730,-2220.617826,-740.205942,-76149.892501
12594.789272,-5477.523971,-3404.947333,-77988.521696
12594.791815,-6661.853478,2220.617826,-79214.274493
12594.794357,7550.100608,-1776.494261,-78754.617194
12594.796899,-5329.482782,-1184.329507,-78448.178995
12594.799441,-3552.988522,2960.823768,-76915.987999
12594.801983,-7550.100608,-3849.070898,-79520.712692
12594.804526,-20725.766376,-1036.288319,-75537.016103
12594.807068,-10955.047942,-2516.700203,-79520.712692
12594.809610,-2220.617826,-1184.329507,-77682.083497
12594.812152,-3849.070898,-2220.617826,-78448.178995
12594.814694,-3701.029710,2664.741391,-78141.740796
12594.817237,7550.100608,-2664.741391,-78907.836294
12594.819779,5181.441594,-1924.535449,-77835.302597
12594.822321,2368.659014,0.000000,-76149.892501
12594.824863,6069.688724,-2220.617826,-78754.617194
12594.827405,0.000000,1480.411884,-77682.083497
12594.829948,-296.082377,-2072.576638,-77988.521696
12594.832490,12435.459826,0.000000,-77835.302597
12594.835032,6809.894666,-5625.565159,-77528.864398
12594.837574,5773.606348,-1924.535449,-77069.207099
12594.840116,-2664.741391,1036.288319,-78141.740796
12594.842659,-888.247130,-1628.453072,-76915.987999
12594.845201,-3552.988522,-2516.700203,-77222.426198
12594.847743,3849.070898,1332.370696,-78294.959896
12594.850285,3552.988522,-1628.453072,-79520.712692
12594.852827,-3108.864956,-2220.617826,-75537.016103
12594.855370,1776.494261,740.205942,-77222.426198
12594.857912,15248.242405,-1332.370696,-77222.426198
12594.860454,10510.924376,-2368.659014,-76149.892501
12594.863003,18209.066173,2664.741391,-77682.083497
12594.865552,14063.912898,-4145.153275,-79520.712692
12594.868101,1480.411884,-740.205942,-77988.521696
12594.870650,-6365.771101,-592.164754,-77222.426198
12594.873200,740.205942,-740.205942,-77222.426198
12594.875749,-8438.347739,-444.123565,-78448.178995
12594.878298,1332.370696,-444.123565,-79214.274493
12594.880847,4885.359217,1036.288319,-78754.617194
12594.883396,-2812.782580,-2072.576638,-78141.740796
12594.885945,-10214.842000,1924.535449,-76762.768900
12594.888494,-7105.977043,740.205942,-78294.959896
12594.891043,-7846.182985,-4293.194464,-76456.330700
12594.893592,-8142.265362,1184.329507,-76303.111601
12594.896142,4293.194464,-888.247130,-79980.369991
12594.898691,-7254.018232,-1776.494261,-78754.617194
12594.901240,-5329.482782,-148.041188,-76609.549800
12594.903789,-12139.377449,592.164754,-78601.398095
12594.906338,5477.523971,-148.041188,-75843.454302
12594.908887,-11547.212695,-3404.947333,-77375.645298
12594.911436,-1332.370696,1036.288319,-78907.836294
12594.913985,-6513.812290,-2960.823768,-77222.426198
12594.916534,-12731.542202,-2072.576638,-73851.606007
12594.919083,-18061.024985,-3256.906145,-77682.083497
12594.921633,-7402.059420,-2072.576638,-76456.330700
12594.924182,-3997.112087,-4145.153275,-78294.959896
12594.926731,-6069.688724,2368.659014,-78294.959896
12594.929280,7254.018232,0.000000,-78294.959896
12594.931829,3997.112087,-3256.906145,-76609.549800
12594.934378,7402.059420,-740.205942,-78754.617194
12594.936927,8734.430116,148.041188,-80133.589091
12594.939476,-2960.823768,-2072.576638,-77222.426198
12594.942025,-1480.411884,1332.370696,-79061.055394
12594.944575,7254.018232,-444.123565,-78448.178995
12594.947124,6809.894666,-2812.782580,-77375.645298
12594.949673,7698.141797,-1924.535449,-76762.768900
12594.952222,14656.077652,444.123565,-79980.369991
12594.954771,-296.082377,740.205942,-76456.330700
12594.957320,-3552.988522,-1332.370696,-77835.302597
12594.959869,2220.617826,444.123565,-75996.673402
12594.962418,5625.565159,-2664.741391,-77835.302597
12594.964972,-1776.494261,-148.041188,-78448.178995
12594.967526,5625.565159,592.164754,-76609.549800
12594.970080,7402.059420,-4885.359217,-79061.055394
12594.972634,6809.894666,-1036.288319,-77222.426198
12594.975188,17024.736666,2664.741391,-78601.398095
12594.977742,19245.354492,-2072.576638,-77069.207099
12594.980296,3108.864956,-3849.070898,-78448.178995
12594.982850,-1036.288319,1480.411884,-79061.055394
12594.985404,-3404.947333,-2664.741391,-78294.959896
12594.987958,-12731.542202,-1332.370696,-77528.864398
12594.990512,740.205942,888.247130,-77682.083497
12594.993066,4885.359217,-1776.494261,-79827.150892
12594.995621,-1184.329507,-296.082377,-76456.330700
12594.998175,-9030.512492,-1332.370696,-78754.617194
12595.000729,-3256.906145,2072.576638,-79367.493593
12595.003283,-6957.935855,-4589.276840,-77375.645298
12595.005837,-9622.677246,2516.700203,-77069.207099
12595.008391,1776.494261,-3256.906145,-78294.959896
12595.010945,-9622.677246,740.205942,-78448.178995
12595.013499,-6513.812290,-3108.864956,-77528.864398
12595.016053,-592.164754,1628.453072,-77375.645298
12595.018607,-1924.535449,-1776.494261,-76149.892501
12595.021161,1332.370696,-2664.741391,-76303.111601
12595.023715,-4589.276840,2072.576638,-79673.931792
12595.026269,592.164754,-1776.494261,-77222.426198
12595.028823,-19689.478057,0.000000,-75843.454302
12595.031377,-11843.295072,-1776.494261,-75690.235202
12595.033931,-14359.995275,-2516.700203,-79367.493593
12595.036485,-5921.647536,-2812.782580,-77222.426198
12595.039039,-3256.906145,1776.494261,-78294.959896
12595.041593,6217.729913,-296.082377,-79367.493593
12595.044147,2072.576638,-3849.070898,-77069.207099
12595.046701,5033.400406,-296.082377,-77835.302597
12595.049255,8734.430116,-1184.329507,-78294.959896
12595.051809,-3108.864956,-2368.659014,-77528.864398
12595.054363,3256.906145,740.205942,-77835.302597
12595.056917,5477.523971,-3849.070898,-79214.274493
12595.059471,13767.830521,-1924.535449,-76762.768900
12595.062025,2368.659014,-2368.659014,-78601.398095
12595.064579,9770.718434,0.000000,-79520.712692
12595.067137,8882.471304,-4145.153275,-76609.549800
12595.069696,740.205942,148.041188,-75383.797003
12595.072254,5181.441594,148.041188,-79673.931792
12595.074812,1628.453072,-2516.700203,-79061.055394
12595.077371,-5625.565159,444.123565,-74617.701505
12595.079929,4441.235652,-1776.494261,-75383.797003
12595.082487,9918.759623,-3256.906145,-78448.178995
12595.085045,1332.370696,-1480.411884,-76149.892501
12595.087604,19245.354492,1628.453072,-78141.740796
12595.090162,14804.118840,-4589.276840,-79520.712692
12595.092720,4737.318029,-1628.453072,-76149.892501
12595.095279,-2220.617826,296.082377,-78601.398095
12595.097837,-3849.070898,-2812.782580,-76149.892501
12595.100395,-12287.418637,-2072.576638,-77988.521696
12595.102954,0.000000,592.164754,-77988.521696
12595.105512,4441.235652,-1184.329507,-79520.712692
12595.108070,-1332.370696,-1036.288319,-77069.207099
12595.110629,-8142.265362,-148.041188,-77222.426198
12595.113187,-2516.700203,1776.494261,-77682.083497
12595.115745,-10807.006753,-2960.823768,-77835.302597
12595.118304,-8142.265362,1332.370696,-77375.645298
12595.120862,2220.617826,-1184.329507,-78754.617194
12595.123420,-7105.977043,1036.288319,-78141.740796
12595.125979,-4589.276840,-1924.535449,-78907.836294
12595.128537,-6809.894666,1776.494261,-77222.426198
12595.131095,1036.288319,-1628.453072,-75230.577904
12595.133654,-9030.512492,-3701.029710,-78448.178995
12595.136212,2812.782580,3108.864956,-80286.808190
12595.138770,-5773.606348,-1776.494261,-78448.178995
12595.141329,-15840.407159,-592.164754,-74311.263306
12595.143887,-16580.613101,-2072.576638,-77375.645298
12595.146445,-9326.594869,-1184.329507,-76762.768900
12595.149004,-2812.782580,-2812.782580,-77375.645298
12595.151562,-2516.700203,1628.453072,-77835.302597
12595.154120,9622.677246,-2516.700203,-80286.808190
12595.156678,2516.700203,-1924.535449,-76456.330700
12595.159237,7846.182985,-2220.617826,-76149.892501
12595.161795,5477.523971,-888.247130,-78754.617194
12595.164353,-444.123565,-2220.617826,-77222.426198
12595.166912,-3404.947333,-740.205942,-76762.768900
12595.169473,8290.306550,888.247130,-77988.521696
12595.172034,12287.418637,-1332.370696,-78141.740796
12595.174595,2812.782580,-4737.318029,-78141.740796
12595.177156,9918.759623,-888.247130,-77988.521696
12595.179717,7254.018232,148.041188,-78141.740796
12595.182278,-5329.482782,-3108.864956,-77222.426198
12595.184839,2072.576638,444.123565,-79673.931792
12595.187400,5921.647536,-2812.782580,-77222.426198
12595.189961,-4885.359217,-1924.535449,-76456.330700
12595.192522,2516.700203,-148.041188,-76915.987999
12595.195083,17616.901420,-2072.576638,-78601.398095
12595.197644,11991.336260,148.041188,-78448.178995
12595.200205,13175.665768,-2072.576638,-77835.302597
12595.202766,15396.283594,-444.123565,-77988.521696
12595.205327,-1184.329507,-2516.700203,-77528.864398
12595.207888,-10214.842000,-296.082377,-78141.740796
12595.210449,-888.247130,592.164754,-77222.426198
12595.213010,-5773.606348,-3552.988522,-77835.302597
12595.215571,-3849.070898,-2368.659014,-76915.987999
12595.218133,-296.082377,1480.411884,-79061.055394
12595.220694,-2368.659014,-2220.617826,-76456.330700
12595.223255,-15396.283594,-1332.370696,-77835.302597
12595.225816,-5477.523971,592.164754,-76303.111601
12595.228377,-5477.523971,-3701.029710,-77835.302597
12595.230938,-9770.718434,-740.205942,-75996.673402
12595.233499,444.123565,-444.123565,-79673.931792
12595.236060,-1036.288319,-2072.576638,-77835.302597
12595.238621,-4441.235652,-1184.329507,-77069.207099
12595.241182,-6217.729913,-1184.329507,-78754.617194
12595.243743,3404.947333,1480.411884,-78907.836294
12595.246304,-4589.276840,-4145.153275,-78601.398095
12595.248865,-4737.318029,1628.453072,-77835.302597
12595.251426,-8142.265362,-3256.906145,-78907.836294
12595.253987,-19689.478057,-2516.700203,-77069.207099
12595.256548,-11103.089130,444.123565,-78448.178995
12595.259109,1036.288319,-1924.535449,-76915.987999
12595.261670,2812.782580,-148.041188,-77069.207099
12595.264231,-2664.741391,-888.247130,-77682.083497
12595.266792,11103.089130,-1776.494261,-76303.111601
12595.269353,7105.977043,-1036.288319,-78141.740796
12595.271917,-3997.112087,1480.411884,-76762.768900
12595.274480,5329.482782,1036.288319,-79980.369991
12595.277044,2812.782580,-2368.659014,-76762.768900
12595.279608,-2368.659014,-444.123565,-77375.645298
12595.282171,12139.377449,1332.370696,-78141.740796
12595.284735,12139.377449,-4145.153275,-80286.808190
12595.287298,4737.318029,-3849.070898,-77069.207099
12595.289862,592.164754,1776.494261,-77988.521696
12595.292426,5625.565159,-3256.906145,-78907.836294
12595.294989,-2516.700203,-1036.288319,-76456.330700
12595.297553,-2072.576638,-1332.370696,-76456.330700
12595.300116,8142.265362,-2516.700203,-76915.987999
12595.302680,-1776.494261,-2516.700203,-76149.892501
12595.305243,12139.377449,-1036.288319,-78754.617194
12595.307807,21021.848753,1776.494261,-79827.150892
12595.310371,14063.912898,-3404.947333,-77682.083497
12595.312934,6957.935855,1332.370696,-77222.426198
12595.315498,4589.276840,-1036.288319,-79520.712692
12595.318061,-5477.523971,-2220.617826,-77988.521696
12595.320625,-12139.377449,444.123565,-78601.398095
12595.323189,1776.494261,-888.247130,-77988.521696
12595.325752,-1628.453072,-2368.659014,-77682.083497
12595.328316,-2812.782580,-740.205942,-76762.768900
12595.330879,-3997.112087,1776.494261,-77375.645298
12595.333443,-7105.977043,-2220.617826,-76456.330700
12595.336006,-13027.624579,-2516.700203,-77375.645298
12595.338570,-3108.864956,2812.782580,-77069.207099
12595.341134,-7698.141797,-2664.741391,-77682.083497
12595.343697,-6069.688724,-1480.411884,-76149.892501
12595.346261,5329.482782,2072.576638,-78601.398095
12595.348824,-2220.617826,-5033.400406,-79367.493593
12595.351388,-2516.700203,-2960.823768,-75077.358804
12595.353951,-2960.823768,1628.453072,-81359.341888
12595.356515,-5625.565159,-1332.370696,-78754.617194
12595.359079,-9622.677246,-3256.906145,-77528.864398
12595.361642,-15692.365970,296.082377,-73085.510509
12595.364206,-7550.100608,-4293.194464,-81512.560987
12595.366769,-15100.201217,-2072.576638,-77835.302597
12595.369333,-296.082377,1332.370696,-77988.521696
12595.371897,5181.441594,-444.123565,-77528.864398
12595.374463,8438.347739,-1776.494261,-76149.892501
12595.377029,4293.194464,-3997.112087,-76456.330700
12595.379594,7402.059420,3256.906145,-78294.959896
12595.382160,-2368.659014,-2960.823768,-78601.398095
12595.384726,-4737.318029,1480.411884,-77988.521696
12595.387291,6513.812290,-296.082377,-77835.302597
12595.389857,9622.677246,-2664.741391,-78141.740796
12595.392423,1480.411884,740.205942,-79214.274493
12595.394988,8882.471304,2664.741391,-79520.712692
12595.397554,1628.453072,-4589.276840,-78294.959896
12595.400120,-888.247130,-740.205942,-75383.797003
12595.402685,0.000000,740.205942,-75996.673402
12595.405251,5921.647536,-2516.700203,-81206.122788
12595.407817,-2664.741391,-1924.535449,-78448.178995
12595.410382,7550.100608,592.164754,-76456.330700
12595.412948,5625.565159,-3849.070898,-78141.740796
12595.415514,10510.924376,0.000000,-76762.768900
12595.418080,12583.501014,1924.535449,-77222.426198
12595.420645,17320.819043,-148.041188,-78754.617194
12595.423211,-1036.288319,-2220.617826,-77222.426198
12595.425777,-6069.688724,-1184.329507,-77528.864398
12595.428342,-4293.194464,740.205942,-77528.864398
12595.430908,-5033.400406,-2368.659014,-77835.302597
12595.433474,-6513.812290,148.041188,-78907.836294
12595.436039,5477.523971,592.164754,-78294.959896
12595.438605,-6661.853478,-2220.617826,-77988.521696
12595.441171,-13175.665768,-444.123565,-75996.673402
12595.443736,-6217.729913,-740.205942,-78141.740796
12595.446302,-5181.441594,-1480.411884,-77375.645298
12595.448868,-4737.318029,-3552.988522,-77988.521696
12595.451433,-148.041188,1776.494261,-77375.645298
12595.453999,-4441.235652,-3997.112087,-76915.987999
12595.456566,-3404.947333,-148.041188,-75690.235202
12595.459133,-1924.535449,-1776.494261,-78754.617194
12595.461699,0.000000,-740.205942,-77375.645298
12595.464266,-3849.070898,-1924.535449,-80133.589091
12595.466833,-7846.182985,444.123565,-78448.178995
12595.469400,-11399.171507,-1628.453072,-77375.645298
12595.471966,-20577.725188,-2220.617826,-72319.415011
12595.474533,-10214.842000,-888.247130,-78754.617194
12595.477100,1036.288319,-1184.329507,-80286.808190
12595.479667,-1480.411884,1628.453072,-76303.111601
12595.482234,4737.318029,-888.247130,-77682.083497
12595.484800,15248.242405,-5181.441594,-78294.959896
12595.487367,3849.070898,-1184.329507,-77375.645298
12595.489934,-5329.482782,592.164754,-76915.987999
12595.492501,2664.741391,0.000000,-79061.055394
12595.495067,3849.070898,-2072.576638,-77375.645298
12595.497634,2960.823768,-148.041188,-76915.987999
12595.500201,13027.624579,-888.247130,-80593.246390
12595.502768,14508.036463,-1924.535449,-78448.178995
12595.505334,-1184.329507,-888.247130,-77988.521696
12595.507901,5181.441594,-148.041188,-77222.426198
12595.510468,6809.894666,-2516.700203,-77222.426198
12595.513035,-444.123565,-592.164754,-78141.740796
12595.515601,4441.235652,-148.041188,-79061.055394
12595.518168,2220.617826,-2812.782580,-76303.111601
12595.520735,3256.906145,-3256.906145,-74770.920605
12595.523302,15692.365970,3108.864956,-78141.740796
12595.525869,17764.942608,-5033.400406,-79827.150892
12595.528435,7994.224174,0.000000,-77528.864398
12595.531002,-2812.782580,592.164754,-77069.207099
12595.533569,-2368.659014,-592.164754,-79827.150892
12595.536136,-9918.759623,-1776.494261,-76915.987999
12595.538702,-9030.512492,-592.164754,-78754.617194
12595.541269,5329.482782,-444.123565,-78448.178995
12595.543836,-5625.565159,-1924.535449,-79520.712692
12595.546403,-4145.153275,-148.041188,-78294.959896
12595.548969,-5625.565159,-1776.494261,-78601.398095
12595.551536,-9030.512492,-1332.370696,-77988.521696
12595.554103,-11991.336260,-1776.494261,-76609.549800
12595.556670,8882.471304,740.205942,-77375.645298
12595.559238,-4589.276840,-3552.988522,-78907.836294
12595.561805,-4145.153275,-148.041188,-76303.111601
12595.564373,-2812.782580,-1480.411884,-76762.768900
12595.566941,-1332.370696,-3701.029710,-73391.948708
12595.569509,-5477.523971,888.247130,-79367.493593
12595.572077,-6365.771101,444.123565,-78141.740796
12595.574645,-5329.482782,-3108.864956,-77375.645298
12595.577213,-23094.425390,-1036.288319,-78754.617194
12595.579781,-10510.924376,1480.411884,-74158.044206
12595.582348,-6513.812290,-3108.864956,-78601.398095
12595.584916,1036.288319,-296.082377,-76609.549800
12595.587484,-888.247130,-1628.453072,-76762.768900
12595.590052,14656.077652,-888.247130,-79061.055394
12595.592620,7550.100608,-2516.700203,-79980.369991
12595.595188,-3108.864956,1184.329507,-77375.645298
12595.597756,2664.741391,148.041188,-77682.083497
12595.600324,3552.988522,-3849.070898,-78601.398095
12595.602891,1480.411884,-2664.741391,-74924.139704
12595.605459,10066.800811,1184.329507,-78448.178995
12595.608027,10362.883188,-6217.729913,-79061.055394
12595.610595,5773.606348,-444.123565,-77528.864398
12595.613163,2220.617826,1036.288319,-77682.083497
12595.615731,2220.617826,-3849.070898,-77069.207099
12595.618299,1628.453072,-1776.494261,-76149.892501
12595.620866,1036.288319,-888.247130,-77528.864398
12595.623434,9326.594869,1036.288319,-78141.740796
12595.626002,4885.359217,-4589.276840,-79061.055394
12595.628570,8142.265362,3256.906145,-78294.959896
12595.631138,19689.478057,-2516.700203,-78448.178995
12595.633706,10807.006753,-1776.494261,-78448.178995
12595.636274,1184.329507,-444.123565,-79061.055394
12595.638842,1924.535449,888.247130,-79214.274493
12595.641409,-13175.665768,-1924.535449,-77375.645298
12595.643977,-7698.141797,-1036.288319,-77222.426198
12595.646545,-1480.411884,740.205942,-79214.274493
12595.649113,1332.370696,-444.123565,-76303.111601
12595.651681,-8142.265362,-1628.453072,-77375.645298
12595.654249,-1776.494261,1332.370696,-77835.302597
12595.656817,-7994.224174,-1628.453072,-75843.454302
12595.659384,-10955.047942,444.123565,-76149.892501
12595.661953,-2664.741391,1036.288319,-76149.892501
12595.664521,-444.123565,-1332.370696,-77682.083497
12595.667089,-6217.729913,-296.082377,-77835.302597
12595.669657,-6069.688724,2220.617826,-78294.959896
12595.672225,888.247130,-1628.453072,-80286.808190
12595.674793,-12139.377449,-1776.494261,-76915.987999
12595.677361,296.082377,-444.123565,-79061.055394
12595.679929,-7994.224174,-1184.329507,-78754.617194
12595.682497,-19245.354492,-2960.823768,-77222.426198
12595.685065,-13767.830521,1184.329507,-78448.178995
12595.687633,-4441.235652,-6217.729913,-76609.549800
12595.690202,-6365.771101,-888.247130,-78754.617194
12595.692770,-592.164754,-148.041188,-77375.645298
12595.695338,18949.272115,-1332.370696,-76762.768900
12595.697906,5773.606348,-3701.029710,-77988.521696
12595.700474,-148.041188,1036.288319,-77069.207099
12595.703042,148.041188,-296.082377,-78294.959896
12595.705610,1480.411884,-2072.576638,-75537.016103
12595.708178,-444.123565,2072.576638,-77835.302597
12595.710746,16432.571912,-2220.617826,-78448.178995
12595.713314,15840.407159,-4885.359217,-77988.521696
12595.715882,-296.082377,592.164754,-78294.959896
12595.718450,-1776.494261,1924.535449,-78141.740796
12595.721019,2072.576638,-2368.659014,-76149.892501
12595.723587,296.082377,-1776.494261,-74617.701505
12595.726155,4737.318029,740.205942,-80133.589091
12595.728723,9622.677246,-1480.411884,-77682.083497
12595.731291,-296.082377,-1628.453072,-76915.987999
12595.733859,16284.530724,2220.617826,-78448.178995
12595.736427,22502.260637,-2368.659014,-80746.465489
12595.738995,9326.594869,-2220.617826,-77835.302597
12595.741563,2664.741391,296.082377,-76149.892501
12595.744131,888.247130,-2368.659014,-78601.398095
12595.746699,-11991.336260,-1332.370696,-78754.617194
12595.749267,-6809.894666,148.041188,-78294.959896
12595.751836,740.205942,-3256.906145,-77069.207099
12595.754404,-6957.935855,-1332.370696,-76915.987999
12595.756972,-2072.576638,1924.535449,-78294.959896
12595.759540,-5773.606348,0.000000,-78141.740796
12595.762108,-6809.894666,-2664.741391,-78294.959896
12595.764676,-14656.077652,0.000000,-77528.864398
12595.767245,-444.123565,0.000000,-78907.836294
12595.769813,-2220.617826,-4293.194464,-77682.083497
12595.772381,-7994.224174,1184.329507,-76609.549800
12595.774949,2664.741391,-888.247130,-78907.836294
12595.777518,2368.659014,-2516.700203,-79367.493593
12595.780086,-4885.359217,296.082377,-77069.207099
12595.782654,-4293.194464,296.082377,-78141.740796
12595.785223,-7846.182985,-2516.700203,-76762.768900
12595.787791,-21317.931130,-1332.370696,-77069.207099
12595.790359,-8438.347739,1036.288319,-77835.302597
12595.792928,-6365.771101,-3552.988522,-77528.864398
12595.795496,-3849.070898,1184.329507,-76456.330700
12595.798064,2960.823768,740.205942,-77528.864398
12595.800633,17024.736666,-3997.112087,-77528.864398
12595.803201,1184.329507,-1776.494261,-76609.549800
12595.805769,-1628.453072,740.205942,-78754.617194
12595.808337,3256.906145,148.041188,-78754.617194
12595.810906,2072.576638,-2072.576638,-77835.302597
12595.813474,4293.194464,888.247130,-78754.617194
12595.816042,14359.995275,-444.123565,-78448.178995
12595.818611,12583.501014,-5181.441594,-77988.521696
12595.821179,5181.441594,2812.782580,-77988.521696
12595.823747,-3108.864956,-2368.659014,-79520.712692
12595.826316,-444.123565,-5033.400406,-77528.864398
12595.828884,5921.647536,1036.288319,-80593.246390
12595.831452,-5477.523971,592.164754,-76456.330700
12595.834021,12139.377449,-2960.823768,-76762.768900
12595.836589,-592.164754,888.247130,-76149.892501
12595.839157,18505.148550,444.123565,-80133.589091
12595.841725,11251.130318,-1480.411884,-80899.684589
12595.844294,8882.471304,-1036.288319,-75077.358804
12595.846862,2960.823768,-888.247130,-78294.959896
12595.849430,-4145.153275,-1776.494261,-77682.083497
12595.851999,-12731.542202,-4293.194464,-77528.864398
12595.854567,-4441.235652,296.082377,-77988.521696
12595.857135,444.123565,-888.247130,-79673.931792
12595.859704,-9474.636058,-2516.700203,-76762.768900
12595.862272,-888.247130,1036.288319,-77375.645298
12595.864840,-5921.647536,-4145.153275,-76149.892501
12595.867374,-9178.553681,-888.247130,-76303.111601
12595.869908,-3552.988522,592.164754,-76456.330700
12595.872441,3404.947333,-1776.494261,-76915.987999
12595.874975,592.164754,-1184.329507,-78294.959896
12595.877509,-4737.318029,1332.370696,-78141.740796
12595.880043,2220.617826,740.205942,-79980.369991
12595.882576,-3552.988522,-2220.617826,-74924.139704
12595.885110,-7402.059420,1628.453072,-78601.398095
12595.887644,-7105.977043,-296.082377,-80593.246390
12595.890178,-16876.695478,-3256.906145,-79214.274493
12595.892711,-18357.107362,-148.041188,-77835.302597
12595.895245,-2220.617826,-444.123565,-77835.302597
12595.897779,-148.041188,-2516.700203,-77988.521696
12595.900312,-3108.864956,-1036.288319,-75996.673402
12595.902846,13619.789333,-444.123565,-77528.864398
12595.905380,11399.171507,-4441.235652,-76456.330700
12595.907914,148.041188,-296.082377,-77988.521696
12595.910447,1776.494261,1924.535449,-78141.740796
12595.912981,1924.535449,-5033.400406,-76762.768900
12595.915515,5181.441594,-1332.370696,-76456.330700
12595.918049,7402.059420,1332.370696,-77835.302597
12595.920582,12139.377449,-2812.782580,-77222.426198
12595.923116,2516.700203,-4293.194464,-77528.864398
12595.925650,-888.247130,2516.700203,-75996.673402
12595.928183,2220.617826,-2812.782580,-78448.178995
12595.930717,444.123565,-1628.453072,-77835.302597
12595.933251,4441.235652,296.082377,-77682.083497
12595.935785,7550.100608,-3701.029710,-77988.521696
12595.938318,9918.759623,-2812.782580,-77682.083497
12595.940852,10658.965565,2072.576638,-78141.740796
12595.943386,18801.230927,-1036.288319,-78141.740796
12595.945920,10807.006753,-2812.782580,-79673.931792
12595.948453,-3997.112087,1332.370696,-75537.016103
12595.950987,1184.329507,148.041188,-78754.617194
12595.953521,-9178.553681,-2220.617826,-76915.987999
12595.956055,-11103.089130,-1036.288319,-77988.521696
12595.958588,1924.535449,296.082377,-78294.959896
12595.961122,-1184.329507,-2220.617826,-77528.864398
12595.963656,-10214.842000,-1776.494261,-77375.645298
12595.966189,-2516.700203,-888.247130,-77988.521696
12595.968730,-7105.977043,-3849.070898,-77069.207099
12595.971271,-3997.112087,148.041188,-76762.768900
12595.973812,-2368.659014,-444.123565,-79214.274493
12595.976352,-1776.494261,-4737.318029,-77375.645298
12595.978893,-2516.700203,-2072.576638,-76915.987999
12595.981434,-1332.370696,1332.370696,-78601.398095
12595.983974,-444.123565,-1332.370696,-77375.645298
12595.986515,-4589.276840,-2072.576638,-77835.302597
12595.989056,-15988.448347,740.205942,-78141.740796
12595.991597,-8734.430116,-2812.782580,-78448.178995
12595.994137,-18209.066173,-3256.906145,-77222.426198
12595.996678,-3997.112087,444.123565,-77835.302597
12595.999219,2072.576638,296.082377,-78754.617194
12596.001760,5625.565159,-2812.782580,-77682.083497
12596.004300,9770.718434,-1776.494261,-77988.521696
12596.006841,5033.400406,2516.700203,-78754.617194
12596.009382,3552.988522,-4441.235652,-78294.959896
12596.011922,-6069.688724,1776.494261,-78601.398095
12596.014463,6217.729913,-1332.370696,-78141.740796
12596.017004,8734.430116,-3701.029710,-79061.055394
12596.019545,8882.471304,-2960.823768,-76456.330700
12596.022085,14656.077652,-148.041188,-79214.274493
12596.024626,4885.359217,-2960.823768,-77528.864398
12596.027167,-3701.029710,-740.205942,-77069.207099
12596.029707,-3552.988522,592.164754,-79214.274493
12596.032248,10955.047942,-1480.411884,-78141.740796
12596.034789,5181.441594,-592.164754,-78601.398095
12596.037330,6365.771101,-444.123565,-77222.426198
12596.039870,15692.365970,-148.041188,-80133.589091
12596.042411,12583.501014,-2664.741391,-77835.302597
12596.044952,7550.100608,1184.329507,-77988.521696
12596.047493,12287.418637,-3108.864956,-79061.055394
12596.050033,-3849.070898,148.041188,-75077.358804
12596.052574,-9770.718434,-1628.453072,-77222.426198
12596.055115,-7105.977043,-1036.288319,-78754.617194
12596.057655,-1924.535449,-1628.453072,-79061.055394
12596.060196,-9326.594869,444.123565,-76609.549800
12596.062737,2516.700203,296.082377,-76303.111601
12596.065278,-5773.606348,-3849.070898,-77528.864398
12596.067818,-7994.224174,148.041188,-76456.330700
12596.070365,-1776.494261,1480.411884,-78601.398095
12596.072912,-1628.453072,-148.041188,-77835.302597
12596.075459,2220.617826,-4293.194464,-79520.712692
12596.078005,-3701.029710,2220.617826,-77988.521696
12596.080552,6513.812290,-3256.906145,-77222.426198
12596.083099,-8734.430116,-1332.370696,-75537.016103
12596.085646,-1776.494261,-1036.288319,-78907.836294
12596.088192,-4293.194464,-3108.864956,-79367.493593
12596.090739,-18801.230927,-2812.782580,-77835.302597
12596.093286,-12287.418637,-740.205942,-78907.836294
12596.095833,-4441.235652,3701.029710,-78448.178995
12596.098379,592.164754,-3997.112087,-77682.083497
12596.100926,-6957.935855,888.247130,-78601.398095
12596.103473,21465.972318,-4145.153275,-76609.549800
12596.106020,7994.224174,-1776.494261,-77375.645298
12596.108566,1628.453072,-592.164754,-77069.207099
12596.111113,3108.864956,740.205942,-79367.493593
12596.113660,1776.494261,-4145.153275,-76762.768900
12596.116207,1332.370696,0.000000,-76609.549800
12596.118753,10214.842000,2812.782580,-77835.302597
12596.121300,11843.295072,-5477.523971,-77835.302597
12596.123847,4293.194464,-148.041188,-76303.111601
12596.126394,-3701.029710,2072.576638,-79673.931792
12596.128940,3552.988522,-1924.535449,-78294.959896
12596.131487,0.000000,-1036.288319,-75537.016103
12596.134034,9326.594869,-148.041188,-77988.521696
12596.136581,8142.265362,-2812.782580,-78294.959896
12596.139127,4293.194464,-1036.288319,-77069.207099
12596.141674,10955.047942,296.082377,-79367.493593
12596.144221,17912.983796,-2368.659014,-80286.808190
12596.146768,1776.494261,-2664.741391,-76149.892501
12596.149314,148.041188,740.205942,-76456.330700
12596.151861,-3849.070898,-1628.453072,-78754.617194
12596.154408,-13767.830521,-2220.617826,-78448.178995
12596.156955,-6809.894666,-888.247130,-77835.302597
12596.159501,-2220.617826,-888.247130,-78754.617194
12596.162048,-1480.411884,-2220.617826,-77069.207099
12596.164595,-9178.553681,444.123565,-78141.740796
12596.167142,-2368.659014,-296.082377,-78448.178995
12596.169688,-9770.718434,-1332.370696,-77682.083497
12596.172240,-10362.883188,-888.247130,-76915.987999
12596.174792,-1332.370696,-1924.535449,-78141.740796
12596.177344,1332.370696,-2516.700203,-77682.083497
12596.179896,-5921.647536,-1332.370696,-79214.274493
12596.182448,3256.906145,1628.453072,-77222.426198
12596.185000,-1332.370696,-2812.782580,-77375.645298
12596.187552,-14211.954086,-2812.782580,-76915.987999
12596.190104,-14211.954086,-148.041188,-76609.549800
12596.192655,-13027.624579,-3256.906145,-75996.673402
12596.195207,-13619.789333,-296.082377,-77835.302597
12596.197759,888.247130,2664.741391,-77528.864398
12596.200311,0.000000,-2368.659014,-77682.083497
12596.202863,9918.759623,-3849.070898,-75996.673402
12596.205415,12139.377449,592.164754,-78141.740796
12596.207967,7994.224174,-1776.494261,-78294.959896
12596.210519,-3552.988522,-444.123565,-78907.836294
12596.213071,-296.082377,-888.247130,-78907.836294
12596.215623,10214.842000,-2664.741391,-78294.959896
12596.218174,9622.677246,-1480.411884,-76456.330700
12596.220726,9918.759623,296.082377,-79980.369991
12596.223278,11399.171507,-3701.029710,-79061.055394
12596.225830,-4589.276840,-2368.659014,-75843.454302
12596.228382,1036.288319,1480.411884,-74464.482406
12596.230934,2516.700203,296.082377,-75843.454302
12596.233486,7402.059420,148.041188,-77528.864398
12596.236038,-1184.329507,-1776.494261,-78754.617194
12596.238590,19245.354492,1184.329507,-77988.521696
12596.241142,11843.295072,-2072.576638,-77222.426198
12596.243694,5033.400406,444.123565,-77988.521696
12596.246245,8290.306550,-296.082377,-79214.274493
12596.248797,-592.164754,-3849.070898,-77988.521696
12596.251349,-8290.306550,1776.494261,-78141.740796
12596.253901,-10362.883188,-1924.535449,-79367.493593
12596.256453,-1924.535449,-2516.700203,-77069.207099
12596.259005,-10510.924376,-1332.370696,-77069.207099
12596.261557,2664.741391,2960.823768,-76456.330700
12596.264109,-2812.782580,-3701.029710,-77835.302597
12596.266661,-7846.182985,-888.247130,-76149.892501
12596.269213,-11695.253884,1184.329507,-77835.302597
12596.271764,-4441.235652,-2664.741391,-75996.673402
12596.274320,-4441.235652,-2516.700203,-78448.178995
12596.276875,-3404.947333,-296.082377,-77682.083497
12596.279430,3108.864956,-1924.535449,-77835.302597
12596.281986,-4145.153275,-296.082377,-78601.398095
12596.284541,-10362.883188,1184.329507,-78294.959896
12596.287096,-6513.812290,-1184.329507,-79673.931792
12596.289652,-19393.395680,-2664.741391,-76303.111601
12596.292207,-12139.377449,-1480.411884,-78754.617194
12596.294762,-1924.535449,740.205942,-77988.521696
12596.297318,1628.453072,-1924.535449,-77375.645298
12596.299873,-740.205942,-888.247130,-77069.207099
12596.302428,17764.942608,-1776.494261,-75843.454302
12596.304984,8438.347739,-592.164754,-77835.302597
12596.307539,-2960.823768,-888.247130,-77528.864398
12596.310094,2960.823768,2220.617826,-78294.959896
12596.312650,1480.411884,-5033.400406,-76915.987999
12596.315205,1628.453072,1036.288319,-76456.330700
12596.317760,11103.089130,296.082377,-79061.055394
12596.320316,9178.553681,-2516.700203,-78754.617194
12596.322871,-7254.018232,-4441.235652,-77835.302597
12596.325426,-888.247130,296.082377,-75383.797003
12596.327982,7402.059420,-2664.741391,-78141.740796
12596.330537,740.205942,-1332.370696,-80440.027290
12596.333092,7698.141797,296.082377,-79980.369991
12596.335648,12731.542202,-3552.988522,-76303.111601
12596.338203,8290.306550,-3997.112087,-74617.701505
12596.340758,12139.377449,-296.082377,-77682.083497
12596.343314,13323.706956,1036.288319,-76762.768900
12596.345869,148.041188,-4441.235652,-78448.178995
12596.348424,-3997.112087,3849.070898,-76915.987999
12596.350980,-7402.059420,-2812.782580,-79673.931792
12596.353535,-8438.347739,-2812.782580,-76762.768900
12596.356090,-11399.171507,1480.411884,-78601.398095
12596.358646,3256.906145,1480.411884,-78907.836294
12596.361201,-7698.141797,-1036.288319,-78448.178995
12596.363756,-3997.112087,-1332.370696,-78601.398095
12596.366312,-5329.482782,1480.411884,-79367.493593
12596.368867,-9622.677246,148.041188,-76456.330700
12596.371422,-6957.935855,-3404.947333,-76762.768900
12596.373978,2220.617826,-740.205942,-77682.083497
12596.376536,1184.329507,-1480.411884,-77988.521696
12596.379094,-9622.677246,-1924.535449,-80746.465489
12596.381653,2812.782580,2072.576638,-74311.263306
12596.384211,-9622.677246,-3849.070898,-77375.645298
12596.386770,-18209.066173,296.082377,-75843.454302
12596.389328,-12583.501014,-3108.864956,-79061.055394
12596.391887,-1184.329507,-444.123565,-76456.330700
12596.394445,-5033.400406,-592.164754,-79214.274493
12596.397004,-740.205942,2812.782580,-77682.083497
12596.399562,16432.571912,-5625.565159,-77375.645298
12596.402121,4737.318029,-888.247130,-77528.864398
12596.404679,7105.977043,148.041188,-78754.617194
12596.407238,2960.823768,-2220.617826,-79980.369991
12596.409796,-2220.617826,-2812.782580,-76915.987999
12596.412355,1332.370696,0.000000,-77682.083497
12596.414913,18653.189738,-888.247130,-79367.493593
12596.417472,14063.912898,-3108.864956,-77222.426198
12596.420030,-1036.288319,-4145.153275,-77069.207099
12596.422589,-3552.988522,1924.535449,-77069.207099
12596.425147,1924.535449,-2368.659014,-78141.740796
12596.427706,-1924.535449,-3256.906145,-75537.016103
12596.430264,11991.336260,1480.411884,-76762.768900
12596.432823,10658.965565,-3256.906145,-77835.302597
12596.435381,14656.077652,-1332.370696,-74770.920605
12596.437940,7105.977043,-1036.288319,-79520.712692
12596.440498,11103.089130,444.123565,-79214.274493
12596.443057,-2516.700203,-3256.906145,-77682.083497
12596.445615,-3404.947333,2516.700203,-77222.426198
12596.448174,-3997.112087,-5625.565159,-79367.493593
12596.450732,-10658.965565,-1184.329507,-79520.712692
12596.453291,-10955.047942,-592.164754,-78294.959896
12596.455849,2812.782580,0.000000,-78601.398095
12596.458408,-1776.494261,-2812.782580,-77375.645298
12596.460966,-8438.347739,-1036.288319,-75996.673402
12596.463525,-444.123565,1184.329507,-78448.178995
12596.466083,-7994.224174,148.041188,-76149.892501
12596.468642,-9030.512492,-148.041188,-77069.207099
12596.471200,2664.741391,-592.164754,-76303.111601
12596.473759,3552.988522,-1628.453072,-78448.178995
12596.476317,-7105.977043,1628.453072,-77682.083497
12596.478878,-5625.565159,740.205942,-78907.836294
12596.481440,-9178.553681,-2516.700203,-78601.398095
12596.484001,-21614.013506,-2072.576638,-78448.178995
12596.486562,-10362.883188,148.041188,-77682.083497
12596.489123,-5181.441594,-1628.453072,-78141.740796
12596.491684,-2516.700203,-296.082377,-77682.083497
12596.494246,4441.235652,-1036.288319,-77682.083497
12596.496807,18209.066173,-3997.112087,-79061.055394
12596.499368,1776.494261,-740.205942,-76762.768900
12596.501929,-1924.535449,-1332.370696,-77069.207099
12596.504491,6069.688724,296.082377,-78754.617194
12596.507052,4737.318029,-3552.988522,-76609.549800
12596.509613,3256.906145,-296.082377,-77375.645298
12596.512174,11695.253884,-740.205942,-77988.521696
12596.514736,8438.347739,-2664.741391,-77835.302597
12596.517297,-740.205942,-1776.494261,-77835.302597
12596.519858,1628.453072,148.041188,-77835.302597
12596.522419,740.205942,-2812.782580,-77835.302597
12596.524980,2664.741391,-444.123565,-79367.493593
12596.527542,7402.059420,296.082377,-77682.083497
12596.530103,16876.695478,-3404.947333,-77375.645298
12596.532664,9178.553681,-2072.576638,-77069.207099
12596.535225,14211.954086,592.164754,-77682.083497
12596.537787,5329.482782,-2516.700203,-78141.740796
12596.540348,-4441.235652,0.000000,-75690.235202
12596.542909,-148.041188,888.247130,-77069.207099
12596.545470,-10510.924376,-2960.823768,-77222.426198
12596.548032,-8882.471304,-2368.659014,-77988.521696
12596.550593,-7402.059420,1332.370696,-78907.836294
12596.553154,4145.153275,-444.123565,-77988.521696
12596.555715,-8290.306550,-2368.659014,-76456.330700
12596.558277,-2516.700203,0.000000,-77528.864398
12596.560838,2664.741391,-2664.741391,-78141.740796
12596.563399,-9622.677246,-444.123565,-77682.083497
12596.565960,-6513.812290,1628.453072,-79061.055394
12596.568521,3849.070898,-3701.029710,-77682.083497
12596.571083,-2516.700203,-2516.700203,-77988.521696
12596.573644,-9030.512492,888.247130,-76149.892501
12596.576205,-3256.906145,-1332.370696,-78294.959896
12596.578766,-12583.501014,-2368.659014,-78294.959896
12596.581329,-21465.972318,-1480.411884,-79673.931792
12596.583892,-740.205942,444.123565,-78448.178995
12596.586454,-5033.400406,-2072.576638,-76609.549800
12596.589017,-1036.288319,1924.535449,-77069.207099
12596.591579,10510.924376,-1924.535449,-79673.931792
12596.594142,13471.748144,-3849.070898,-77069.207099
12596.596704,2220.617826,-148.041188,-77682.083497
12596.599267,2220.617826,1480.411884,-78141.740796
12596.601830,2368.659014,-4737.318029,-77069.207099
12596.604392,1332.370696,-1036.288319,-75690.235202
12596.606955,13175.665768,2664.741391,-79061.055394
12596.609517,9030.512492,-4885.359217,-80899.684589
12596.612080,1776.494261,-592.164754,-77069.207099
12596.614643,-1036.288319,-1332.370696,-77682.083497
12596.617205,2072.576638,1036.288319,-77835.302597
12596.619768,1480.411884,-3108.864956,-77988.521696
12596.622330,740.205942,592.164754,-77069.207099
12596.624893,19245.354492,-3256.906145,-77222.426198
12596.627455,11399.171507,-1480.411884,-77375.645298
12596.630018,13619.789333,1184.329507,-78448.178995
12596.632581,7994.224174,-2368.659014,-78294.959896
12596.635143,-1628.453072,-1776.494261,-77528.864398
12596.637706,1628.453072,2220.617826,-78448.178995
12596.640268,-7105.977043,-1480.411884,-77069.207099
12596.642831,-10362.883188,-2516.700203,-79214.274493
12596.645394,-13915.871710,-1036.288319,-78907.836294
12596.647956,1924.535449,444.123565,-78294.959896
12596.650519,-5033.400406,-1036.288319,-76609.549800
12596.653081,-4441.235652,-1480.411884,-77222.426198
12596.655644,3552.988522,-2072.576638,-79367.493593
12596.658206,-7402.059420,444.123565,-78448.178995
12596.660769,-8142.265362,-1184.329507,-76456.330700
12596.663332,1184.329507,1776.494261,-79673.931792
12596.665894,3701.029710,-4737.318029,-77682.083497
12596.668457,1480.411884,-1036.288319,-74158.044206
12596.671019,-9918.759623,1480.411884,-76762.768900
12596.673582,-11103.089130,-3997.112087,-78601.398095
12596.676145,-24870.919651,592.164754,-77222.426198
12596.678707,-6809.894666,-1332.370696,-77835.302597
12596.681270,-3997.112087,-3256.906145,-77375.645298
12596.683834,148.041188,-592.164754,-77069.207099
12596.686397,3701.029710,-1332.370696,-79673.931792
12596.688961,18505.148550,-2220.617826,-77988.521696
12596.691525,6365.771101,-1184.329507,-79061.055394
12596.694089,740.205942,1036.288319,-77069.207099
12596.696653,5329.482782,-1184.329507,-79214.274493
12596.699217,-444.123565,-5033.400406,-76456.330700
12596.701781,3997.112087,2072.576638,-76915.987999
12596.704345,19245.354492,-2664.741391,-78294.959896
12596.706908,9918.759623,-888.247130,-76762.768900
12596.709472,-6365.771101,-2368.659014,-76762.768900
12596.712036,3552.988522,296.082377,-74311.263306
12596.714600,-592.164754,-1184.329507,-79827.150892
12596.717164,-2368.659014,148.041188,-78294.959896
12596.719728,13767.830521,1184.329507,-79061.055394
12596.722292,19393.395680,-2072.576638,-75996.673402
12596.724856,8438.347739,0.000000,-78754.617194
12596.727419,10510.924376,0.000000,-80899.684589
12596.729983,0.000000,-4145.153275,-77988.521696
12596.732547,-3552.988522,1184.329507,-76915.987999
12596.735111,-6069.688724,-592.164754,-77682.083497
12596.737675,-5477.523971,-4145.153275,-77069.207099
12596.740239,-15100.201217,-1184.329507,-77222.426198
12596.742803,-296.082377,-148.041188,-77988.521696
12596.745366,-2812.782580,-1184.329507,-76609.549800
12596.747930,-4737.318029,-888.247130,-76609.549800
12596.750494,-4145.153275,148.041188,-78754.617194
12596.753058,-592.164754,1184.329507,-78754.617194
12596.755622,-7698.141797,-1924.535449,-79673.931792
12596.758186,-296.082377,0.000000,-78294.959896
12596.760750,6217.729913,444.123565,-78141.740796
12596.763314,-10658.965565,-1924.535449,-77222.426198
12596.765879,-6809.894666,-148.041188,-79367.493593
12596.768444,-9326.594869,0.000000,-78294.959896
12596.771009,-20873.807564,-3849.070898,-79520.712692
12596.773574,-17468.860231,-1036.288319,-77835.302597
12596.776139,5181.441594,1480.411884,-76609.549800
12596.778704,-1184.329507,-2812.782580,-76915.987999
12596.781269,8438.347739,-2960.823768,-77069.207099
12596.783834,13027.624579,-444.123565,-78754.617194
12596.786399,9770.718434,-296.082377,-76762.768900
12596.788964,-8142.265362,1036.288319,-77222.426198
12596.791530,5181.441594,-148.041188,-76762.768900
12596.794095,1480.411884,-3256.906145,-77682.083497
12596.796660,7846.182985,148.041188,-76915.987999
12596.799225,7550.100608,1036.288319,-79827.150892
12596.801790,10807.006753,-3256.906145,-78907.836294
12596.804355,-6217.729913,-1480.411884,-76609.549800
12596.806920,592.164754,888.247130,-78141.740796
12596.809485,1776.494261,-3256.906145,-79520.712692
12596.812050,6217.729913,-1776.494261,-77988.521696
12596.814615,10362.883188,2812.782580,-77835.302597
12596.817180,22058.137072,-3849.070898,-78294.959896
12596.819746,10807.006753,-3997.112087,-77682.083497
12596.822311,592.164754,888.247130,-76762.768900
12596.824876,5773.606348,-296.082377,-78601.398095
12596.827441,-1924.535449,-888.247130,-77682.083497
12596.830006,-14508.036463,592.164754,-78448.178995
12596.832571,-5033.400406,-1480.411884,-79061.055394
12596.835136,-7402.059420,-2368.659014,-79061.055394
12596.837701,-5773.606348,0.000000,-76609.549800
12596.840266,-3256.906145,592.164754,-77069.207099
12596.842831,-2664.741391,-2072.576638,-78141.740796
12596.845396,-7105.977043,-1332.370696,-79367.493593
12596.847961,-6365.771101,-148.041188,-78448.178995
12596.850527,1480.411884,-1332.370696,-79827.150892
12596.853092,-1332.370696,-1628.453072,-75077.358804
12596.855657,-1332.370696,-888.247130,-77069.207099
12596.858222,1776.494261,-1776.494261,-78907.836294
12596.860787,-13915.871710,-1776.494261,-77222.426198
12596.863352,-18653.189738,0.000000,-78601.398095
12596.865917,-10362.883188,1480.411884,-77682.083497
12596.868483,-3849.070898,-2664.741391,-76915.987999
12596.871049,-1628.453072,2516.700203,-76303.111601
12596.873615,7105.977043,-296.082377,-78294.959896
12596.876182,14804.118840,-5033.400406,-77375.645298
12596.878748,5181.441594,1332.370696,-76762.768900
12596.881314,8586.388927,1332.370696,-78141.740796
12596.883880,-1924.535449,-444.123565,-78294.959896
12596.886446,-2960.823768,-3997.112087,-77988.521696
12596.889012,10066.800811,2516.700203,-78448.178995
12596.891578,11695.253884,-4145.153275,-79061.055394
12596.894144,6217.729913,-1628.453072,-77069.207099
12596.896711,1480.411884,-1628.453072,-79673.931792
12596.899277,-444.123565,-2072.576638,-75996.673402
12596.901843,592.164754,-3404.947333,-76915.987999
12596.904409,6513.812290,3108.864956,-78448.178995
12596.906975,14952.160028,-2960.823768,-78907.836294
12596.909541,10955.047942,-3849.070898,-77835.302597
12596.912107,11103.089130,-592.164754,-78294.959896
12596.914673,7994.224174,0.000000,-79061.055394
12596.917240,-3849.070898,-3849.070898,-78294.959896
12596.919806,-3404.947333,0.000000,-78601.398095
12596.922372,-2516.700203,-1332.370696,-77988.521696
12596.924938,-10955.047942,-3108.864956,-79980.369991
12596.927504,-13915.871710,296.082377,-78141.740796
